Timestamp,Roll,Pitch,Yaw,EulerX,EulerY,EulerZ,QuaternionX,QuaternionY,QuaternionZ,QuaternionW,AccX,AccY,AccZ,GyroX,GyroY,GyroZ,MagX,MagY,MagZ,LinearAccX,LinearAccY,LinearAccZ,Pressure,Altitude+10,Piezo,Label
00:00:00:071,1.48,-0.73,-7.53,1.48,0.73,7.53,0.01,-0.01,0,1,0.04,1.06,-0.02,-7.63,1.04,-5.25,-194.39,-360.2,-600.9,0.07,1.07,-1.02,1014.03,3.51,303,1
00:00:00:187,7.86,-4.41,-8,7.86,4.41,8,0.07,-0.04,0,1,0.01,1.1,-0.34,-0.61,5.74,-5.13,-204.9,-374.26,-604.28,0.14,1.17,-1.33,1014.03,3.5,42,1
00:00:00:314,14.58,-8.68,-9.43,14.58,8.68,9.43,0.13,-0.08,-0.01,0.99,-0.08,1.22,-0.82,-0.12,7.14,-5.31,-182.13,-386.56,-619.52,0.17,1.37,-1.78,1014.04,3.44,43,1
00:00:00:429,20.85,-12.67,-11.49,20.85,12.67,11.49,0.18,-0.11,-0.01,0.98,0.03,1.04,-0.36,-1.83,4.88,-5,-189.13,-390.08,-595.82,0.38,1.26,-1.27,1014.05,3.32,48,1
00:00:00:545,26.55,-13.91,-15.11,26.55,13.91,15.11,0.22,-0.13,-0.04,0.97,0.04,1.05,-0.19,-10.68,0.98,-5.19,-197.89,-377.78,-600.9,0.48,1.29,-1.05,1014.05,3.32,41,1
00:00:00:666,32.67,-16.22,-18.81,32.67,16.22,18.81,0.26,-0.16,-0.05,0.95,0.04,1.04,0.03,-10.01,2.14,-5.13,-199.64,-383.05,-595.82,0.56,1.31,-0.78,1014.06,3.41,41,1
00:00:00:782,38.66,-17.87,-23.32,38.66,17.87,23.32,0.3,-0.19,-0.08,0.93,0.38,0.99,0.4,-2.62,-1.1,-5.07,-196.14,-383.05,-595.82,0.97,1.3,-0.34,1014.04,3.41,28,1
00:00:00:900,43.49,-19.49,-28.09,43.49,19.49,28.09,0.33,-0.22,-0.1,0.91,-0.44,0.83,0.46,-7.02,17.76,-5.31,-201.39,-395.35,-604.28,0.21,1.17,-0.22,1014.04,3.45,40,1
00:00:01:016,46.24,-20.33,-33.39,46.24,20.33,33.39,0.34,-0.24,-0.14,0.9,-0.71,0.77,-0.24,-15.38,6.9,-5.55,-206.65,-386.56,-609.36,-0.04,1.12,-0.89,1014.02,3.49,55,1
00:00:01:132,52.05,-23.15,-39.15,52.05,23.15,39.15,0.36,-0.29,-0.16,0.87,-0.32,1.05,-0.64,-1.95,12.82,-5.07,-204.9,-388.32,-607.67,0.41,1.45,-1.2,1014.04,3.35,55,1
00:00:01:263,57.03,-24.11,-45.01,57.03,24.11,45.01,0.38,-0.32,-0.18,0.85,-0.16,0.87,-0.29,-13.85,7.87,-5.31,-208.4,-391.83,-614.44,0.6,1.28,-0.78,1014.04,3.46,36,1
00:00:01:378,62.64,-23.92,-50.79,62.64,23.92,50.79,0.41,-0.35,-0.21,0.82,0.13,0.96,-0.03,-4.7,0.18,-5.13,-199.64,-400.62,-619.52,0.94,1.36,-0.45,1014.05,3.34,45,1
00:00:01:496,62.22,-20.09,-55.52,62.22,20.09,55.52,0.4,-0.34,-0.26,0.81,-0.09,0.79,-0.38,-16.97,4.46,-5.68,-210.15,-379.53,-599.21,0.74,1.13,-0.82,1014.05,3.31,37,1
00:00:01:612,66.93,-19.77,-60.82,66.93,19.77,60.82,0.42,-0.37,-0.28,0.78,-0.07,0.89,-0.41,-4.64,6.29,-5.13,-196.14,-393.59,-595.82,0.79,1.23,-0.78,1014.04,3.38,53,1
00:00:01:728,70.31,-17.55,-66.11,70.31,17.55,66.11,0.44,-0.39,-0.32,0.75,0.19,0.94,-0.65,-3.91,2.14,-5.25,-190.89,-384.8,-607.67,1.09,1.24,-0.97,1014.04,3.54,39,1
00:00:01:846,73.96,-16.84,-71.07,73.96,16.84,71.07,0.44,-0.41,-0.34,0.72,0.07,0.97,-0.08,-12.94,0.61,-4.76,-199.64,-379.53,-602.59,0.99,1.26,-0.34,1014.03,3.49,59,1
00:00:01:962,77.04,-15.89,-75.85,77.04,15.89,75.85,0.45,-0.44,-0.36,0.69,0.07,1.07,0.15,-3.6,2.56,-5.07,-211.9,-384.8,-617.82,1.01,1.34,-0.06,1014.04,3.36,42,1
00:00:02:093,81,-14.69,-80.68,81,14.69,80.68,0.46,-0.46,-0.38,0.66,-0.04,1.11,-0.91,-6.1,5.74,-5.31,-190.89,-388.32,-600.9,0.91,1.36,-1.06,1014.04,3.44,39,1
00:00:02:209,83.89,-13.59,-85.24,83.89,13.59,85.24,0.46,-0.48,-0.4,0.62,-0.03,1.09,-0.58,-6.41,4.58,-5,-199.64,-386.56,-609.36,0.94,1.33,-0.68,1014.04,3.4,52,1
00:00:02:325,86.8,-11.9,-89.54,86.8,11.9,89.54,0.47,-0.51,-0.42,0.59,0.18,0.86,0.18,-14.28,-1.1,-5.19,-211.9,-384.8,-607.67,1.15,1.07,0.12,1014.04,3.43,43,1
00:00:02:443,88.06,-9.52,-93.49,88.06,9.52,93.49,0.47,-0.52,-0.45,0.56,0.1,0.98,0.33,-11.54,0.85,-5,-197.89,-398.86,-607.67,1.08,1.15,0.3,1014.02,3.57,46,1
00:00:02:559,88.11,-7.48,-96.8,88.11,7.48,96.8,0.46,-0.52,-0.47,0.54,0.12,0.96,0.37,-2.56,3.11,-5.07,-189.13,-386.56,-599.21,1.11,1.09,0.33,1014.03,3.56,46,1
00:00:02:677,85,-5.17,-101.08,85,5.17,101.08,0.44,-0.51,-0.52,0.53,-0.02,0.89,-0.12,-7.02,5.68,-5.07,-183.88,-395.35,-617.82,0.98,0.98,-0.2,1014.01,3.57,43,1
00:00:02:793,78.99,-4.51,-103.1,78.99,4.51,103.1,0.4,-0.49,-0.55,0.54,0.18,1.08,-0.53,2.08,16.85,-5.25,-201.39,-388.32,-600.9,1.16,1.15,-0.73,1014.02,3.57,7,1
00:00:02:909,79.24,1.22,-103.46,79.24,-1.22,103.46,0.43,-0.47,-0.58,0.51,1.17,1.45,-3.23,11.84,13.31,-5.31,-204.9,-402.38,-611.05,2.15,1.43,-3.41,1014.02,3.56,26,1
00:00:03:027,82.18,1.34,-105.54,82.18,-1.34,105.54,0.44,-0.49,-0.57,0.49,0.43,1.45,-1.41,4.39,-1.77,-4.82,-187.38,-391.83,-614.44,1.42,1.43,-1.55,1014.02,3.51,53,1
00:00:03:143,76.28,1.95,-106.68,76.28,-1.95,106.68,0.41,-0.46,-0.61,0.5,0.57,0.3,1.01,-31.01,-13.37,-5.74,-187.38,-388.32,-604.28,1.55,0.26,0.77,1014.03,3.58,59,1
00:00:03:274,78.56,2.26,-108.08,78.56,-2.26,108.08,0.42,-0.48,-0.6,0.48,0.05,1.02,0.12,18.98,14.59,-5.37,-185.63,-383.05,-605.98,1.03,0.98,-0.08,1014.03,3.47,18,1
00:00:03:389,72.25,3.44,-109.7,72.25,-3.44,109.7,0.39,-0.44,-0.64,0.49,0.09,0.65,1.17,-21.61,1.59,-5.86,-201.39,-384.8,-617.82,1.04,0.59,0.86,1014.03,3.6,20,1
00:00:03:507,65.84,4.48,-112.53,65.84,-4.48,112.53,0.36,-0.41,-0.68,0.49,-0.12,1.18,-1.6,-10.62,4.82,-5.49,-201.39,-388.32,-611.05,0.79,1.1,-2.01,1014.02,3.48,26,1
00:00:03:623,70.79,3.33,-114.3,70.79,-3.33,114.3,0.36,-0.45,-0.66,0.47,-0.08,1.21,-0.97,-1.16,8.36,-4.88,-203.14,-400.62,-612.75,0.86,1.15,-1.3,1014.03,3.42,47,1
00:00:03:739,70.6,4.09,-116.3,70.6,-4.09,116.3,0.36,-0.45,-0.68,0.46,0.1,0.96,0.03,-17.7,1.46,-5.31,-208.4,-402.38,-607.67,1.04,0.89,-0.3,1014.03,3.44,41,1
00:00:03:857,74,3.31,-117.32,74,-3.31,117.32,0.36,-0.48,-0.66,0.44,0.01,1.02,-0.29,-10.93,2.75,-4.94,-208.4,-388.32,-614.44,0.97,0.96,-0.56,1014.05,3.4,54,1
00:00:03:973,74.91,3.08,-118.05,74.91,-3.08,118.05,0.36,-0.49,-0.66,0.44,0.28,0.83,1.24,-4.39,-0.12,-5.07,-196.14,-379.53,-609.36,1.24,0.78,0.98,1014.03,3.56,51,1
00:00:04:104,74.96,3.82,-119.31,74.96,-3.82,119.31,0.36,-0.49,-0.67,0.43,-0.1,1.06,-0.82,0.31,8.91,-5.25,-182.13,-379.53,-619.52,0.87,0.99,-1.08,1014.04,3.46,39,1
00:00:04:219,77.31,3.53,-120.39,77.31,-3.53,120.39,0.37,-0.51,-0.66,0.42,0.11,0.89,0.09,-10.68,1.65,-5.31,-199.64,-397.1,-619.52,1.08,0.82,-0.13,1014.02,3.6,45,1
00:00:04:335,79.18,3.33,-121,79.18,-3.33,121,0.37,-0.52,-0.65,0.41,-0.09,1.21,-0.58,-2.2,6.41,-5.07,-185.63,-383.05,-609.36,0.89,1.15,-0.77,1014.04,3.46,51,1
00:00:04:453,81.96,2.73,-121.55,81.96,-2.73,121.55,0.37,-0.54,-0.64,0.4,0.09,1.01,-0.34,-0.85,3.3,-5.13,-178.63,-400.62,-609.36,1.08,0.96,-0.48,1014.04,3.43,55,1
00:00:04:569,82.84,2.96,-122.56,82.84,-2.96,122.56,0.37,-0.55,-0.64,0.39,0.02,0.9,0.73,-16.78,-0.06,-5.13,-192.64,-393.59,-599.21,1.02,0.85,0.61,1014.05,3.36,26,1
00:00:04:687,86.02,3.99,-122.5,86.02,-3.99,122.5,0.39,-0.56,-0.63,0.37,0.52,1.37,-0.57,5.74,-8.73,-5.25,-199.64,-400.62,-619.52,1.52,1.3,-0.64,1014.04,3.4,29,1
00:00:04:803,86.06,-0.13,-124.54,86.06,0.13,124.54,0.36,-0.58,-0.62,0.38,0.1,1.21,0.26,4.27,-1.89,-4.76,-217.15,-435.76,-629.67,1.1,1.22,0.19,1014.05,3.47,125,1
00:00:04:919,83.37,4.4,-123.34,83.37,-4.4,123.34,0.38,-0.55,-0.65,0.37,0.2,1.56,-4.34,21.85,37.23,-3.91,-204.9,-409.4,-627.98,1.19,1.49,-4.45,1014.03,3.54,35,1
00:00:05:077,91.58,1.34,-126.27,91.58,-1.34,126.27,0.37,-0.61,-0.6,0.35,-0.33,1.69,-0.52,40.53,37.78,-5.19,-225.91,-405.89,-621.21,0.67,1.66,-0.49,1014.03,3.51,72,1
00:00:05:193,85.39,1.85,-126.48,85.39,-1.85,126.48,0.35,-0.58,-0.64,0.36,0.19,1.02,-0.77,-3.11,-3.42,-5.62,-206.65,-421.7,-639.83,1.19,0.99,-0.85,1014.02,3.58,12,1
00:00:05:309,82.83,1.26,-127.07,82.83,-1.26,127.07,0.34,-0.57,-0.65,0.37,0.54,0.43,-0.58,-5.13,-6.04,-5.43,-213.65,-421.7,-622.9,1.53,0.41,-0.71,1014.03,3.44,101,1
00:00:05:425,83.04,0.36,-127.53,83.04,-0.36,127.53,0.33,-0.57,-0.65,0.37,0.68,0.56,0.98,-12.33,-1.89,-5.43,-215.4,-423.46,-627.98,1.67,0.55,0.86,1014.03,3.49,25,1
00:00:05:540,77.64,-0.97,-129.17,77.64,0.97,129.17,0.3,-0.55,-0.68,0.38,0,1.19,-0.61,-0.31,16.05,-4.94,-213.65,-414.67,-629.67,0.98,1.21,-0.82,1014.04,3.47,42,1
00:00:05:656,82.57,-2.04,-130.31,82.57,2.04,130.31,0.3,-0.59,-0.65,0.37,-0.12,0.99,0.04,6.77,8.36,-5.31,-217.15,-428.73,-633.06,0.87,1.02,-0.09,1014.04,3.37,31,1
00:00:05:771,83.71,0.25,-130.79,83.71,-0.25,130.79,0.32,-0.59,-0.66,0.35,-0.28,1.21,-1.34,-6.9,11.9,-5.07,-210.15,-414.67,-612.75,0.71,1.2,-1.45,1014.05,3.41,40,1
00:00:05:887,86.51,-0.85,-131.37,86.51,0.85,131.37,0.32,-0.61,-0.64,0.35,-0.05,1.1,-0.1,1.4,5.98,-4.7,-213.65,-428.73,-639.83,0.95,1.12,-0.16,1014.04,3.32,53,1
00:00:06:002,79.54,-0.55,-131.3,79.54,0.55,131.3,0.3,-0.57,-0.68,0.36,-0.17,1.23,-1.03,-0.31,5.37,-5.31,-217.15,-414.67,-622.9,0.81,1.24,-1.22,1014.04,3.48,37,1
00:00:06:118,82.8,-1.33,-131.42,82.8,1.33,131.42,0.3,-0.59,-0.66,0.36,-0.02,1.06,0.1,-12.45,-1.59,-4.82,-215.4,-423.46,-631.37,0.97,1.09,-0.03,1014.04,3.47,59,1
00:00:06:234,77.8,2.19,-131.15,77.8,-2.19,131.15,0.31,-0.55,-0.69,0.36,0.12,0.97,0.38,-10.5,0.55,-5.31,-229.41,-426.97,-634.75,1.09,0.93,0.16,1014.04,3.53,38,1
00:00:06:350,77.16,2.35,-131.03,77.16,-2.35,131.03,0.31,-0.54,-0.69,0.36,0.17,0.86,0.59,-17.4,-1.89,-5,-210.15,-425.22,-633.06,1.14,0.82,0.37,1014.03,3.44,53,1
00:00:06:466,80.28,1.41,-131.4,80.28,-1.41,131.4,0.31,-0.56,-0.68,0.35,0.08,0.96,0.15,3.54,7.87,-5.25,-229.41,-434,-634.75,1.06,0.93,-0.02,1014.04,3.4,31,1
00:00:06:581,79.7,3.04,-131.46,79.7,-3.04,131.46,0.32,-0.56,-0.69,0.35,0.1,0.92,-0.1,-9.16,2.81,-5.37,-225.91,-409.4,-638.14,1.08,0.87,-0.28,1014.04,3.47,41,1
00:00:06:697,81.76,2.5,-131.17,81.76,-2.5,131.17,0.32,-0.57,-0.67,0.34,0.06,1,0.02,-1.46,3.54,-5.07,-206.65,-411.16,-629.67,1.05,0.95,-0.12,1014.04,3.54,35,1
00:00:06:812,77.44,2.34,-131.53,77.44,-2.34,131.53,0.31,-0.54,-0.69,0.35,0.06,0.97,-0.39,-1.04,5.8,-5.37,-218.91,-416.43,-627.98,1.03,0.93,-0.6,1014.03,3.45,41,1
00:00:06:928,78.6,2.15,-131.6,78.6,-2.15,131.6,0.31,-0.55,-0.69,0.35,0.08,0.98,-0.28,-12.57,0.98,-5.13,-213.65,-432.25,-626.29,1.06,0.95,-0.48,1014.03,3.55,45,1
00:00:07:044,77.56,2.78,-131.72,77.56,-2.78,131.72,0.31,-0.54,-0.7,0.35,0.08,1.06,-0.3,5.49,8.12,-5.31,-211.9,-423.46,-624.6,1.05,1.01,-0.52,1014.03,3.42,37,1
00:00:07:160,79.37,2.63,-131.88,79.37,-2.63,131.88,0.31,-0.56,-0.69,0.35,0.1,0.92,0.27,-12.39,-0.24,-5,-208.4,-426.97,-617.82,1.08,0.87,0.08,1014.03,3.42,47,1
00:00:07:276,81.62,2.04,-131.89,81.62,-2.04,131.89,0.32,-0.57,-0.67,0.34,0.1,0.98,0.05,-6.35,3.78,-5.43,-229.41,-405.89,-621.21,1.09,0.94,-0.1,1014.04,3.52,35,1
00:00:07:436,74.74,4.99,-131.97,74.74,-4.99,131.97,0.31,-0.52,-0.71,0.35,0.12,1.1,-0.53,-2.93,4.03,-5.19,-208.4,-412.92,-617.82,1.08,1.01,-0.79,1014.02,3.53,37,1
00:00:07:551,77.42,3.02,-132.12,77.42,-3.02,132.12,0.31,-0.54,-0.7,0.35,-0.05,0.96,0.87,-10.8,1.22,-4.64,-217.15,-418.19,-605.98,0.93,0.91,0.65,1014.04,3.29,41,1
00:00:07:667,77.97,4.57,-131.72,77.97,-4.57,131.72,0.32,-0.54,-0.7,0.34,-0.05,1.09,-0.37,2.14,10.07,-5.25,-215.4,-402.38,-621.21,0.93,1.01,-0.58,1014.04,3.47,44,1
00:00:07:782,79.76,3.66,-131.67,79.76,-3.66,131.67,0.32,-0.55,-0.69,0.34,-0.47,0.73,1.47,-22.22,8.3,-5.55,-225.91,-409.4,-621.21,0.51,0.67,1.29,1014.03,3.47,0,1
00:00:07:898,84.36,4.37,-132.41,84.36,-4.37,132.41,0.34,-0.58,-0.67,0.32,0.39,0.5,0.34,-22.03,-7.26,-5.19,-210.15,-411.16,-616.13,1.38,0.43,0.24,1014.01,3.58,67,1
00:00:08:014,86.84,3.51,-133.77,86.84,-3.51,133.77,0.33,-0.6,-0.66,0.31,-0.57,1.76,-2.42,22.77,25.82,-3.42,-197.89,-419.95,-611.05,0.43,1.7,-2.47,1014.02,3.54,40,1
00:00:08:130,80.56,2.31,-134.29,80.56,-2.31,134.29,0.3,-0.57,-0.69,0.33,-0.16,1.1,-0.92,-2.38,15.38,-3.97,-190.89,-426.97,-614.44,0.82,1.06,-1.09,1014.03,3.56,47,1
00:00:08:246,71.88,3.4,-133.4,71.88,-3.4,133.4,0.29,-0.51,-0.73,0.35,-0.08,1.12,-0.78,-13.12,4.09,-5.19,-204.9,-416.43,-611.05,0.87,1.06,-1.09,1014.03,3.51,53,1
00:00:08:361,74.61,3.33,-133.23,74.61,-3.33,133.23,0.3,-0.53,-0.72,0.35,0.28,0.89,0.6,-12.33,1.22,-5.86,-213.65,-407.65,-616.13,1.24,0.83,0.34,1014.01,3.71,58,1
00:00:08:477,68.75,4.36,-132.87,68.75,-4.36,132.87,0.29,-0.49,-0.74,0.36,-0.05,1.05,0.13,-24.23,0.67,-5,-215.4,-391.83,-614.44,0.88,0.97,-0.23,1014.01,3.61,52,1
00:00:08:592,72.22,3.86,-132.73,72.22,-3.86,132.73,0.3,-0.51,-0.73,0.35,0.11,1,0.5,-7.14,6.23,-4.21,-203.14,-425.22,-612.75,1.06,0.93,0.19,1014.02,3.68,31,1
00:00:08:708,74.05,3.99,-132.58,74.05,-3.99,132.58,0.3,-0.52,-0.72,0.35,0.14,0.75,0.33,-12.76,0.92,-5.19,-210.15,-418.19,-609.36,1.1,0.68,0.06,1014,3.71,37,1
00:00:08:823,75.5,2.75,-132.39,75.5,-2.75,132.39,0.3,-0.53,-0.71,0.35,-0.06,0.94,-0.14,7.63,12.88,-5.68,-194.39,-423.46,-614.44,0.9,0.89,-0.39,1014.03,3.63,42,1
00:00:08:939,77.16,5.11,-131.84,77.16,-5.11,131.84,0.32,-0.53,-0.7,0.34,0.13,1.07,-0.4,-1.89,4.7,-5.8,-203.14,-414.67,-602.59,1.1,0.98,-0.62,1014.02,3.61,41,1
00:00:09:055,71.17,5.68,-132.58,71.17,-5.68,132.58,0.3,-0.5,-0.73,0.35,-0.07,1.17,-0.17,-16.72,4.15,-4.76,-199.64,-411.16,-616.13,0.87,1.07,-0.49,1013.99,3.63,30,1
00:00:09:171,75.75,5.5,-131.83,75.75,-5.5,131.83,0.32,-0.52,-0.71,0.34,0.14,0.93,0.12,-8.24,0.37,-4.46,-204.9,-419.95,-614.44,1.1,0.83,-0.13,1013.99,3.84,59,1
00:00:09:287,75.02,4.59,-131.81,75.02,-4.59,131.81,0.31,-0.52,-0.71,0.35,-0.04,1.12,-0.83,-13.18,2.38,-5.25,-206.65,-414.67,-602.59,0.93,1.04,-1.09,1014,3.82,45,1
00:00:09:402,77.52,3.71,-131.46,77.52,-3.71,131.46,0.32,-0.54,-0.7,0.35,0.07,1.12,0.1,4.58,5,-5.13,-208.4,-419.95,-617.82,1.05,1.06,-0.12,1013.97,3.9,45,1
00:00:09:518,79.47,3.61,-131.28,79.47,-3.61,131.28,0.32,-0.55,-0.69,0.34,0.12,1.05,0.15,1.65,3.23,-5.07,-201.39,-412.92,-604.28,1.1,0.98,-0.03,1014,3.8,44,1
00:00:09:633,81.17,3.09,-131.37,81.17,-3.09,131.37,0.32,-0.56,-0.68,0.34,0.22,0.96,0.49,-5.74,1.65,-4.82,-203.14,-418.19,-612.75,1.2,0.91,0.33,1013.98,3.91,51,1
00:00:09:761,83.58,2.06,-131.45,83.58,-2.06,131.45,0.32,-0.58,-0.66,0.34,0.12,0.95,-0.09,-2.44,4.58,-5.13,-215.4,-426.97,-611.05,1.11,0.92,-0.21,1013.98,3.92,45,1
00:00:09:877,85.28,1.92,-131.61,85.28,-1.92,131.61,0.33,-0.59,-0.66,0.33,0.11,0.86,-0.06,-4.88,2.26,-5.31,-204.9,-416.43,-607.67,1.11,0.82,-0.14,1013.97,4.07,43,1
00:00:09:992,80.06,3.48,-131.98,80.06,-3.48,131.98,0.32,-0.56,-0.69,0.34,-0.04,1.09,-0.42,-6.23,3.54,-5.07,-185.63,-414.67,-616.13,0.94,1.03,-0.59,1013.96,4.08,51,1
00:00:10:125,83.1,2.63,-132.01,83.1,-2.63,132.01,0.32,-0.58,-0.67,0.33,-0.04,1.09,-0.7,-4.33,4.82,-5.07,-204.9,-419.95,-604.28,0.95,1.05,-0.82,1013.96,4.09,47,1
00:00:10:241,77.85,3.77,-132,77.85,-3.77,132,0.32,-0.54,-0.7,0.34,0.07,1.07,-0.29,-6.41,1.95,-5.43,-204.9,-423.46,-621.21,1.05,1,-0.5,1013.94,4.17,44,1
00:00:10:357,80.89,3.42,-131.97,80.89,-3.42,131.97,0.32,-0.56,-0.68,0.34,0.12,0.96,-0.21,-5.13,3.23,-5.37,-187.38,-416.43,-617.82,1.11,0.91,-0.37,1013.95,4.3,39,1
00:00:10:472,83.28,3.28,-132.25,83.28,-3.28,132.25,0.33,-0.58,-0.67,0.33,0.19,0.84,0.42,-20.14,-1.59,-5.31,-211.9,-423.46,-614.44,1.18,0.78,0.3,1013.93,4.29,39,1
00:00:10:588,84.46,2.72,-132.4,84.46,-2.72,132.4,0.33,-0.59,-0.66,0.33,0.04,1.04,-0.08,-8.61,3.36,-5.07,-199.64,-428.73,-609.36,1.03,0.99,-0.17,1013.95,4.15,45,1
00:00:10:703,87.09,1.92,-132.75,87.09,-1.92,132.75,0.33,-0.61,-0.65,0.32,-0.02,1.1,-0.55,0.49,5.86,-5.07,-197.89,-416.43,-607.67,0.98,1.07,-0.6,1013.95,4.25,44,1
00:00:10:819,84.25,1.56,-132.74,84.25,-1.56,132.74,0.32,-0.59,-0.66,0.33,0.04,0.99,-0.29,-4.58,3.6,-5.37,-201.39,-430.49,-590.74,1.04,0.96,-0.39,1013.94,4.25,41,1
00:00:10:935,82.5,2.52,-132.59,82.5,-2.52,132.59,0.32,-0.58,-0.67,0.33,0.04,1.12,-0.38,-2.87,3.72,-5.07,-206.65,-414.67,-622.9,1.03,1.07,-0.51,1013.93,4.35,47,1
00:00:11:051,84.56,2.65,-132.51,84.56,-2.65,132.51,0.33,-0.59,-0.66,0.33,0.15,0.97,0.16,-10.07,1.16,-4.94,-196.14,-414.67,-595.82,1.14,0.92,0.07,1013.94,4.37,41,1
00:00:11:167,83.02,4.33,-132.49,83.02,-4.33,132.49,0.33,-0.57,-0.68,0.32,0.18,0.9,0.49,-11.72,-1.04,-4.88,-197.89,-423.46,-604.28,1.17,0.83,0.37,1013.92,4.37,39,1
00:00:11:282,85.44,3.78,-132.5,85.44,-3.78,132.5,0.33,-0.59,-0.66,0.32,0.1,0.94,0.07,-4.21,3.72,-5.25,-194.39,-430.49,-604.28,1.09,0.87,-0.01,1013.93,4.38,43,1
00:00:11:398,86.68,3.53,-132.52,86.68,-3.53,132.52,0.34,-0.6,-0.65,0.32,0.1,1.03,-0.21,-3.3,4.27,-5.37,-220.66,-418.19,-599.21,1.09,0.97,-0.26,1013.92,4.52,40,1
00:00:11:513,87.39,3.64,-132.47,87.39,-3.64,132.47,0.34,-0.6,-0.65,0.31,0.02,1.11,-0.4,-2.62,5.43,-5.25,-206.65,-411.16,-612.75,1.01,1.05,-0.44,1013.92,4.47,46,1
00:00:11:629,88.72,3.17,-132.59,88.72,-3.17,132.59,0.34,-0.61,-0.64,0.31,0.11,0.95,-0.06,-6.53,4.82,-5.25,-183.88,-412.92,-611.05,1.1,0.9,-0.08,1013.92,4.42,43,1
00:00:11:744,88.52,3.32,-132.76,88.52,-3.32,132.76,0.34,-0.61,-0.64,0.31,0.06,1.01,-0.38,-6.59,4.27,-5.19,-196.14,-418.19,-622.9,1.06,0.95,-0.4,1013.92,4.5,43,1
00:00:11:860,90.22,2.75,-133.08,90.22,-2.75,133.08,0.34,-0.62,-0.64,0.31,0.05,1.05,-0.2,-5.86,6.84,-5.25,-208.4,-423.46,-611.05,1.04,1,-0.2,1013.92,4.46,45,1
00:00:11:976,86.01,3.89,-133.61,86.01,-3.89,133.61,0.33,-0.6,-0.66,0.31,0.1,1.03,-0.3,-10.62,5.49,-5.25,-197.89,-426.97,-611.05,1.09,0.96,-0.37,1013.91,4.51,39,1
00:00:12:092,87.37,3.18,-133.97,87.37,-3.18,133.97,0.33,-0.61,-0.65,0.31,0.05,1.05,-0.13,-6.65,7.57,-5,-210.15,-414.67,-602.59,1.05,0.99,-0.18,1013.92,4.53,39,1
00:00:12:208,88.99,2.61,-134.45,88.99,-2.61,134.45,0.33,-0.62,-0.65,0.3,0.15,0.93,-0.05,-7.87,6.96,-5.07,-213.65,-432.25,-602.59,1.15,0.89,-0.06,1013.91,4.58,42,1
00:00:12:323,88.33,2.46,-134.75,88.33,-2.46,134.75,0.32,-0.62,-0.65,0.31,0.01,0.93,0.08,-10.8,5.98,-5.07,-197.89,-419.95,-600.9,1.01,0.88,0.05,1013.92,4.44,42,1
00:00:12:449,84.73,2.67,-134.81,84.73,-2.67,134.81,0.31,-0.6,-0.67,0.31,0.17,0.98,-0.01,-10.44,4.15,-5.13,-220.66,-435.76,-602.59,1.16,0.94,-0.1,1013.91,4.56,39,1
00:00:12:564,86.51,1.47,-135.3,86.51,-1.47,135.3,0.31,-0.61,-0.66,0.31,0.12,1.05,-0.21,-5.86,7.32,-5,-201.39,-437.52,-587.36,1.11,1.02,-0.27,1013.9,4.47,41,1
00:00:12:680,85.14,3.38,-135.61,85.14,-3.38,135.61,0.32,-0.6,-0.67,0.3,0.26,1,0.02,-12.51,2.56,-5,-208.4,-437.52,-590.74,1.25,0.94,-0.07,1013.91,4.59,45,1
00:00:12:796,79.71,4.49,-135.68,79.71,-4.49,135.68,0.31,-0.56,-0.7,0.31,-0.07,0.96,0.03,-11.23,6.41,-5.25,-206.65,-449.82,-578.89,0.91,0.88,-0.15,1013.9,4.58,39,1
00:00:12:912,82.34,3.31,-135.82,82.34,-3.31,135.82,0.31,-0.58,-0.69,0.31,0.07,0.93,-0.11,-6.04,3.23,-5.19,-206.65,-432.25,-568.74,1.06,0.87,-0.24,1013.91,4.51,51,1
00:00:13:028,84.22,2.44,-135.78,84.22,-2.44,135.78,0.31,-0.6,-0.67,0.31,0,0.9,-0.01,-4.52,2.75,-5.19,-215.4,-430.49,-580.59,1,0.86,-0.11,1013.89,4.73,41,1
00:00:13:143,86.48,2.02,-135.62,86.48,-2.02,135.62,0.31,-0.61,-0.66,0.31,0.04,1.01,-0.4,-0.06,4.58,-4.94,-206.65,-439.27,-592.43,1.03,0.98,-0.46,1013.88,4.68,43,1
00:00:13:259,87.76,2.78,-135.37,87.76,-2.78,135.37,0.32,-0.61,-0.65,0.3,0.06,1.03,-0.07,-2.32,4.58,-5.25,-220.66,-442.79,-585.66,1.05,0.98,-0.11,1013.89,4.65,45,1
00:00:13:374,83.86,5.02,-135.33,83.86,-5.02,135.33,0.32,-0.59,-0.68,0.3,0.1,1.03,-0.28,-8.06,0.67,-5.37,-206.65,-442.79,-592.43,1.09,0.95,-0.39,1013.9,4.52,42,1
00:00:13:490,85.5,4.82,-134.93,85.5,-4.82,134.93,0.33,-0.59,-0.67,0.3,0.33,1.03,-0.22,-5.13,-2.5,-4.94,-210.15,-428.73,-568.74,1.32,0.94,-0.29,1013.91,4.56,35,1
00:00:13:605,86.55,2.98,-134.92,86.55,-2.98,134.92,0.32,-0.61,-0.66,0.31,-0.18,1.36,0.68,-4.15,-0.37,-4.27,-197.89,-434,-580.59,0.81,1.31,0.62,1013.89,4.71,47,1
00:00:13:721,87.95,5.28,-134.83,87.95,-5.28,134.83,0.34,-0.61,-0.66,0.29,0.13,0.91,0.43,-2.44,5.13,-5.07,-210.15,-442.79,-582.28,1.13,0.82,0.4,1013.87,4.76,28,1
00:00:13:837,91.32,5.13,-134.77,91.32,-5.13,134.77,0.35,-0.63,-0.64,0.28,0.24,1.05,-0.21,2.81,1.53,-5.07,-199.64,-435.76,-595.82,1.24,0.96,-0.19,1013.89,4.68,52,1
00:00:13:953,85.2,4.71,-135.42,85.2,-4.71,135.42,0.32,-0.59,-0.67,0.3,-0.05,1.26,-1.58,7.45,7.75,-5.19,-199.64,-428.73,-582.28,0.94,1.18,-1.66,1013.88,4.78,45,1
00:00:14:069,85.95,3.16,-135.58,85.95,-3.16,135.58,0.32,-0.6,-0.67,0.3,-0.07,1.18,-1.12,2.69,9.77,-5.25,-199.64,-439.27,-585.66,0.93,1.12,-1.19,1013.88,4.77,53,1
00:00:14:184,80.16,4.97,-135.97,80.16,-4.97,135.97,0.31,-0.56,-0.7,0.31,0.04,1.06,-0.47,-8.91,3.97,-5.25,-210.15,-435.76,-599.21,1.03,0.97,-0.64,1013.88,4.81,38,1
00:00:14:300,82.16,4.27,-135.96,82.16,-4.27,135.96,0.31,-0.58,-0.69,0.31,0.2,0.83,0.83,-20.63,-4.52,-4.88,-208.4,-434,-594.13,1.19,0.76,0.7,1013.87,4.81,51,1
00:00:14:415,85.57,3.29,-136.1,85.57,-3.29,136.1,0.31,-0.6,-0.67,0.3,0.19,0.72,0.71,-10.62,-2.26,-4.88,-197.89,-444.55,-594.13,1.19,0.67,0.63,1013.88,4.74,33,1
00:00:14:531,87.2,3.24,-135.81,87.2,-3.24,135.81,0.32,-0.61,-0.66,0.3,0.06,0.99,-0.11,-5.74,1.04,-5.07,-199.64,-432.25,-592.43,1.06,0.93,-0.16,1013.87,4.84,45,1
00:00:14:647,87.93,2.91,-135.29,87.93,-2.91,135.29,0.32,-0.62,-0.65,0.3,0.03,1.17,-0.22,11.11,6.29,-4.94,-203.14,-439.27,-595.82,1.02,1.12,-0.26,1013.88,4.86,51,1
00:00:14:775,90.7,2.58,-135.49,90.7,-2.58,135.49,0.33,-0.63,-0.64,0.29,0.11,0.85,0.06,-9.52,0.24,-5.25,-196.14,-442.79,-592.43,1.11,0.81,0.07,1013.85,4.89,37,1
00:00:14:891,93.05,2.2,-135.81,93.05,-2.2,135.81,0.33,-0.65,-0.63,0.29,0.06,1.04,-0.65,1.83,7.75,-5.43,-196.14,-428.73,-585.66,1.06,1,-0.6,1013.86,4.97,39,1
00:00:15:007,86.41,3.55,-135.92,86.41,-3.55,135.92,0.32,-0.61,-0.67,0.3,0.01,1.06,-0.32,-7.69,1.28,-5.07,-196.14,-442.79,-575.51,1.01,1,-0.39,1013.85,4.86,45,1
00:00:15:123,86.21,3.56,-135.65,86.21,-3.56,135.65,0.32,-0.6,-0.67,0.3,0.04,1.11,-0.51,0.67,5.49,-5.13,-194.39,-430.49,-594.13,1.04,1.05,-0.58,1013.87,4.8,44,1
00:00:15:244,87.89,3.33,-135.36,87.89,-3.33,135.36,0.32,-0.61,-0.66,0.3,0.18,1.01,0.23,-2.56,3.91,-5,-194.39,-441.03,-590.74,1.18,0.95,0.2,1013.86,4.99,40,1
00:00:15:360,88.99,2.84,-135.55,88.99,-2.84,135.55,0.32,-0.62,-0.65,0.3,0.14,0.86,0.31,-3.91,3.6,-5.13,-197.89,-441.03,-570.43,1.13,0.81,0.29,1013.84,5.06,31,1
00:00:15:475,91.23,2.52,-135.66,91.23,-2.52,135.66,0.33,-0.64,-0.64,0.29,0.08,1.07,-0.32,-2.2,3.97,-5.25,-208.4,-423.46,-583.97,1.08,1.03,-0.29,1013.83,5.09,41,1
00:00:15:591,92.75,2.42,-135.72,92.75,-2.42,135.72,0.33,-0.64,-0.63,0.29,0.07,1.07,-0.42,-0.31,4.88,-5.19,-206.65,-449.82,-589.05,1.07,1.03,-0.37,1013.84,5.04,43,1
00:00:15:706,86.71,2.99,-135.99,86.71,-2.99,135.99,0.32,-0.61,-0.66,0.3,0.02,1.12,-0.7,-3.66,4.88,-5.07,-211.9,-430.49,-604.28,1.02,1.07,-0.76,1013.85,5.03,47,1
00:00:15:822,85.11,3.31,-135.61,85.11,-3.31,135.61,0.31,-0.6,-0.67,0.3,0.04,1.08,-0.48,-4.21,3.85,-5.19,-215.4,-444.55,-594.13,1.03,1.02,-0.56,1013.85,5.04,45,1
00:00:15:938,85.23,3.28,-135.74,85.23,-3.28,135.74,0.31,-0.6,-0.67,0.3,0.08,0.95,-0.02,-10.13,2.87,-5.43,-206.65,-439.27,-585.66,1.07,0.89,-0.1,1013.84,5.16,35,1
00:00:16:054,87.58,2.79,-135.84,87.58,-2.79,135.84,0.32,-0.62,-0.66,0.3,0.1,0.98,0.13,-5.37,3.36,-5.19,-187.38,-448.06,-597.51,1.1,0.93,0.09,1013.85,4.95,42,1
00:00:16:170,89.24,2.79,-135.94,89.24,-2.79,135.94,0.32,-0.62,-0.65,0.29,0.13,0.95,0.1,-4.7,3.42,-5.19,-197.89,-462.12,-590.74,1.12,0.9,0.08,1013.85,4.97,43,1
00:00:16:285,89.52,2.72,-136.02,89.52,-2.72,136.02,0.32,-0.63,-0.65,0.29,0.07,1.02,-0.12,-4.76,3.23,-5,-201.39,-444.55,-600.9,1.07,0.97,-0.13,1013.85,4.99,44,1
00:00:16:401,89.09,2.56,-135.9,89.09,-2.56,135.9,0.32,-0.62,-0.65,0.3,0.06,1.03,-0.39,-3.36,3.54,-5.13,-199.64,-449.82,-589.05,1.06,0.98,-0.4,1013.85,5.02,46,1
00:00:16:516,87.46,2.61,-135.97,87.46,-2.61,135.97,0.32,-0.62,-0.66,0.3,0.03,1.06,-0.23,-4.88,3.42,-5,-204.9,-441.03,-590.74,1.03,1.01,-0.27,1013.84,5.11,41,1
00:00:16:632,88.09,2.85,-135.8,88.09,-2.85,135.8,0.32,-0.62,-0.65,0.3,0.12,0.98,0,-6.47,1.95,-5.07,-192.64,-439.27,-589.05,1.12,0.93,-0.03,1013.82,5.23,41,1
00:00:16:748,89.14,2.65,-135.82,89.14,-2.65,135.82,0.32,-0.62,-0.65,0.3,0.12,0.95,0.12,-8.61,0.85,-5.07,-206.65,-439.27,-589.05,1.12,0.91,0.1,1013.82,5.24,38,1
00:00:16:864,90.5,2.52,-135.86,90.5,-2.52,135.86,0.32,-0.63,-0.64,0.29,0.13,0.95,0.04,-7.2,2.62,-5.19,-194.39,-448.06,-590.74,1.13,0.91,0.05,1013.83,5.18,40,1
00:00:16:980,91.66,2.09,-136.05,91.66,-2.09,136.05,0.32,-0.64,-0.63,0.29,0.06,1.06,-0.44,-3.36,4.64,-5.13,-194.39,-437.52,-594.13,1.06,1.02,-0.41,1013.82,5.31,45,1
00:00:17:095,91.13,2.41,-136.12,91.13,-2.41,136.12,0.32,-0.64,-0.64,0.29,0.08,1,-0.36,-4.52,4.15,-5.31,-203.14,-435.76,-582.28,1.08,0.96,-0.34,1013.81,5.3,44,1
00:00:17:211,90.34,2.6,-136.13,90.34,-2.6,136.13,0.32,-0.63,-0.64,0.29,0.06,1.03,-0.29,-4.82,4.46,-5.13,-203.14,-439.27,-595.82,1.06,0.98,-0.29,1013.83,5.25,43,1
00:00:17:326,91.42,2.73,-136.11,91.42,-2.73,136.11,0.33,-0.64,-0.64,0.29,0.08,0.99,-0.06,-6.71,2.44,-5.13,-196.14,-439.27,-592.43,1.08,0.94,-0.04,1013.81,5.32,43,1
00:00:17:442,91.86,2.55,-136.23,91.86,-2.55,136.23,0.32,-0.64,-0.63,0.29,0.08,0.99,-0.1,-7.51,2.69,-5,-192.64,-453.33,-595.82,1.08,0.94,-0.07,1013.81,5.32,41,1
00:00:17:568,92.64,2.5,-136.32,92.64,-2.5,136.32,0.33,-0.65,-0.63,0.28,0.08,0.97,-0.11,-6.04,3.17,-5.19,-187.38,-441.03,-587.36,1.08,0.93,-0.07,1013.82,5.3,43,1
00:00:17:684,92.44,2.59,-136.32,92.44,-2.59,136.32,0.33,-0.64,-0.63,0.28,0.07,1.01,-0.12,-6.53,2.81,-5.07,-190.89,-426.97,-590.74,1.07,0.96,-0.08,1013.81,5.37,45,1
00:00:17:800,93.37,2.35,-136.41,93.37,-2.35,136.41,0.33,-0.65,-0.63,0.28,0.07,0.98,-0.13,-7.14,3.23,-5.37,-208.4,-426.97,-583.97,1.07,0.94,-0.08,1013.8,5.4,43,1
00:00:17:915,92.9,2.44,-136.41,92.9,-2.44,136.41,0.33,-0.65,-0.63,0.28,0.1,0.98,-0.12,-7.45,2.69,-5.25,-197.89,-444.55,-590.74,1.09,0.93,-0.07,1013.79,5.61,42,1
00:00:18:031,93.38,2.25,-136.51,93.38,-2.25,136.51,0.33,-0.65,-0.63,0.28,0.09,1.01,-0.08,-5.74,3.42,-5.19,-199.64,-435.76,-592.43,1.09,0.97,-0.02,1013.79,5.49,38,1
00:00:18:146,93.99,2.29,-136.5,93.99,-2.29,136.5,0.33,-0.65,-0.62,0.28,0.1,0.98,0.01,-6.84,2.38,-5.13,-189.13,-439.27,-602.59,1.1,0.94,0.08,1013.8,5.45,41,1
00:00:18:262,94.79,2.16,-136.53,94.79,-2.16,136.53,0.33,-0.66,-0.62,0.28,0.08,0.97,-0.11,-6.65,2.5,-5.13,-194.39,-441.03,-604.28,1.07,0.93,-0.03,1013.79,5.54,41,1
00:00:18:378,94.13,2.4,-136.57,94.13,-2.4,136.57,0.33,-0.65,-0.62,0.28,0.08,0.97,-0.12,-7.51,2.87,-5.19,-206.65,-435.76,-585.66,1.08,0.93,-0.05,1013.78,5.54,45,1
00:00:18:494,91.96,2.86,-136.51,91.96,-2.86,136.51,0.33,-0.64,-0.63,0.28,0.09,0.98,-0.13,-7.75,2.62,-5.25,-208.4,-430.49,-587.36,1.09,0.93,-0.1,1013.79,5.51,47,1
00:00:18:610,91.94,2.71,-136.45,91.94,-2.71,136.45,0.32,-0.64,-0.63,0.28,0.07,1.01,-0.12,-6.71,3.23,-5.13,-197.89,-437.52,-587.36,1.07,0.96,-0.09,1013.79,5.52,43,1
00:00:18:725,92.58,2.69,-136.44,92.58,-2.69,136.44,0.33,-0.65,-0.63,0.28,0.11,0.95,-0.01,-8,2.69,-5.19,-211.9,-441.03,-594.13,1.1,0.91,0.03,1013.8,5.47,42,1
00:00:18:841,93.55,2.5,-136.51,93.55,-2.5,136.51,0.33,-0.65,-0.62,0.28,0.08,0.97,-0.08,-7.26,3.23,-5.19,-206.65,-442.79,-592.43,1.07,0.92,-0.01,1013.79,5.54,41,1
00:00:18:956,94.15,2.35,-136.6,94.15,-2.35,136.6,0.33,-0.66,-0.62,0.28,0.09,0.99,-0.06,-6.65,3.48,-5.19,-206.65,-428.73,-592.43,1.08,0.95,0.01,1013.79,5.5,39,1
00:00:19:072,93.67,2.43,-136.61,93.67,-2.43,136.61,0.33,-0.65,-0.62,0.28,0.08,1,-0.18,-6.35,3.48,-5.25,-203.14,-439.27,-578.89,1.08,0.95,-0.12,1013.78,5.6,41,1
00:00:19:188,92.92,2.68,-136.67,92.92,-2.68,136.67,0.33,-0.65,-0.63,0.28,0.07,1.01,-0.14,-6.9,3.05,-5.25,-217.15,-442.79,-592.43,1.07,0.96,-0.09,1013.79,5.56,42,1
00:00:19:304,92.46,2.79,-136.68,92.46,-2.79,136.68,0.33,-0.64,-0.63,0.28,0.08,0.97,-0.13,-7.26,2.81,-5.19,-196.14,-446.3,-585.66,1.08,0.92,-0.09,1013.78,5.67,43,1
00:00:19:420,93.08,2.55,-136.74,93.08,-2.55,136.74,0.32,-0.65,-0.63,0.28,0.1,1.01,-0.08,-6.53,2.75,-5.07,-206.65,-439.27,-592.43,1.09,0.96,-0.02,1013.77,5.7,37,1
00:00:19:535,93.57,2.51,-136.79,93.57,-2.51,136.79,0.33,-0.65,-0.63,0.28,0.09,0.99,-0.01,-7.02,2.93,-5.25,-197.89,-455.09,-590.74,1.08,0.95,0.05,1013.77,5.61,41,1
00:00:19:651,93.9,2.46,-136.87,93.9,-2.46,136.87,0.33,-0.65,-0.62,0.28,0.1,0.97,-0.07,-6.77,2.5,-5.25,-204.9,-437.52,-583.97,1.1,0.92,0,1013.77,5.67,43,1
00:00:19:766,94,2.55,-136.91,94,-2.55,136.91,0.33,-0.65,-0.62,0.28,0.08,1.01,-0.14,-5.62,3.11,-5.19,-199.64,-453.33,-592.43,1.07,0.97,-0.07,1013.77,5.65,40,1
00:00:19:893,94.29,2.54,-137.04,94.29,-2.54,137.04,0.33,-0.66,-0.62,0.28,0.09,0.95,-0.03,-7.02,3.05,-5.13,-204.9,-437.52,-583.97,1.09,0.91,0.05,1013.78,5.57,43,1
00:00:20:009,94.55,2.51,-137.13,94.55,-2.51,137.13,0.33,-0.66,-0.62,0.27,0.09,0.99,-0.06,-6.29,2.87,-5.13,-199.64,-453.33,-592.43,1.09,0.95,0.02,1013.77,5.63,41,1
00:00:20:124,94.04,2.57,-137.21,94.04,-2.57,137.21,0.32,-0.66,-0.62,0.27,0.08,1.01,-0.12,-5.98,2.93,-5.13,-204.9,-451.57,-600.9,1.08,0.97,-0.05,1013.77,5.79,41,1
00:00:20:270,93.32,2.3,-137.17,93.32,-2.3,137.17,0.32,-0.65,-0.63,0.28,0.08,0.95,-0.06,-7.14,2.75,-5.19,-208.4,-444.55,-607.67,1.08,0.91,0,1013.76,5.8,43,1
00:00:20:385,93.5,2.52,-137.09,93.5,-2.52,137.09,0.32,-0.65,-0.63,0.28,0.09,0.98,-0.11,-6.23,3.11,-5.19,-201.39,-441.03,-587.36,1.08,0.94,-0.05,1013.75,5.84,40,1
00:00:20:501,93.85,2.36,-137.12,93.85,-2.36,137.12,0.32,-0.65,-0.62,0.28,0.08,0.97,-0.06,-6.53,2.99,-5.19,-208.4,-444.55,-597.51,1.08,0.93,0.01,1013.75,5.84,37,1
00:00:20:616,94.41,2.2,-137.15,94.41,-2.2,137.15,0.32,-0.66,-0.62,0.28,0.08,1,-0.08,-6.29,2.93,-5.19,-199.64,-453.33,-589.05,1.08,0.96,0,1013.75,5.88,45,1
00:00:20:732,94.86,2.41,-137.28,94.86,-2.41,137.28,0.33,-0.66,-0.62,0.27,0.08,1,-0.16,-5.74,3.05,-5.13,-171.62,-453.33,-589.05,1.07,0.96,-0.08,1013.74,5.93,45,1
00:00:20:848,94.55,2.44,-137.37,94.55,-2.44,137.37,0.32,-0.66,-0.62,0.27,0.08,1,-0.14,-5.98,3.11,-5.13,-189.13,-435.76,-602.59,1.07,0.96,-0.06,1013.74,5.94,39,1
00:00:20:964,93.5,2.57,-137.28,93.5,-2.57,137.28,0.32,-0.65,-0.63,0.28,0.09,1,-0.13,-6.35,3.17,-5.13,-213.65,-449.82,-589.05,1.09,0.95,-0.07,1013.74,5.88,45,1
00:00:21:080,93.25,2.61,-137.27,93.25,-2.61,137.27,0.32,-0.65,-0.63,0.28,0.09,1,-0.1,-6.41,2.93,-5.19,-208.4,-441.03,-611.05,1.09,0.95,-0.05,1013.75,5.92,43,1
00:00:21:195,93.48,2.54,-137.12,93.48,-2.54,137.12,0.32,-0.65,-0.63,0.28,0.08,0.99,-0.04,-6.71,2.99,-5.19,-197.89,-451.57,-604.28,1.07,0.95,0.02,1013.72,6.07,41,1
00:00:21:311,93.95,2.49,-137.15,93.95,-2.49,137.15,0.32,-0.66,-0.62,0.28,0.08,1,-0.13,-6.35,3.05,-5.13,-197.89,-448.06,-583.97,1.07,0.96,-0.06,1013.73,6.04,41,1
00:00:21:426,94.13,2.49,-137.25,94.13,-2.49,137.25,0.32,-0.66,-0.62,0.27,0.08,0.99,-0.1,-6.84,3.11,-5.13,-190.89,-462.12,-594.13,1.07,0.95,-0.03,1013.74,5.94,39,1
00:00:21:542,93.72,2.55,-137.3,93.72,-2.55,137.3,0.32,-0.65,-0.63,0.28,0.08,0.99,-0.19,-6.84,3.17,-5.31,-192.64,-439.27,-599.21,1.08,0.94,-0.13,1013.73,5.99,45,1
00:00:21:658,93.65,2.53,-137.17,93.65,-2.53,137.17,0.32,-0.65,-0.63,0.28,0.08,1.02,-0.13,-6.41,3.05,-5.31,-204.9,-441.03,-587.36,1.08,0.98,-0.07,1013.73,5.92,43,1
00:00:21:774,93.36,2.55,-137.16,93.36,-2.55,137.16,0.32,-0.65,-0.63,0.28,0.08,0.98,-0.1,-6.96,2.56,-5.25,-196.14,-442.79,-592.43,1.08,0.93,-0.05,1013.74,5.95,45,1
00:00:21:890,93.85,2.46,-137.14,93.85,-2.46,137.14,0.32,-0.65,-0.62,0.28,0.08,0.97,-0.12,-7.2,2.87,-5.19,-190.89,-444.55,-597.51,1.08,0.92,-0.05,1013.73,6.01,43,1
00:00:22:005,93.75,2.67,-137.11,93.75,-2.67,137.11,0.33,-0.65,-0.63,0.28,0.09,1,-0.06,-6.71,2.93,-5.13,-201.39,-458.6,-590.74,1.08,0.95,0,1013.74,5.93,41,1
00:00:22:121,93.82,2.9,-137.14,93.82,-2.9,137.14,0.33,-0.65,-0.63,0.27,0.09,0.99,-0.12,-6.53,3.23,-5.25,-196.14,-442.79,-602.59,1.08,0.94,-0.05,1013.72,6.06,44,1
00:00:22:236,93.88,2.63,-137.11,93.88,-2.63,137.11,0.33,-0.65,-0.62,0.28,0.07,1.01,-0.14,-6.16,3.48,-5.19,-192.64,-442.79,-595.82,1.07,0.96,-0.07,1013.72,6.19,41,1
00:00:22:352,93.89,2.51,-137.12,93.89,-2.51,137.12,0.32,-0.65,-0.62,0.28,0.08,0.98,-0.14,-7.14,2.81,-5.19,-208.4,-444.55,-587.36,1.08,0.94,-0.07,1013.71,6.19,43,1
00:00:22:468,94,2.44,-137.2,94,-2.44,137.2,0.32,-0.66,-0.62,0.28,0.07,1,-0.15,-6.41,3.3,-5.19,-199.64,-446.3,-592.43,1.06,0.96,-0.08,1013.71,6.17,39,1
00:00:22:594,93.95,2.52,-137.19,93.95,-2.52,137.19,0.32,-0.66,-0.62,0.28,0.09,1.03,-0.13,-5.62,3.36,-5.07,-206.65,-442.79,-612.75,1.09,0.99,-0.06,1013.71,6.17,43,1
00:00:22:710,93.82,2.64,-137.07,93.82,-2.64,137.07,0.33,-0.65,-0.63,0.28,0.07,0.97,-0.14,-6.29,3.23,-5.19,-196.14,-446.3,-595.82,1.07,0.93,-0.07,1013.72,6.12,43,1
00:00:22:825,93.69,2.57,-137.06,93.69,-2.57,137.06,0.32,-0.65,-0.63,0.28,0.09,1,-0.13,-6.16,3.3,-5.31,-201.39,-437.52,-597.51,1.09,0.96,-0.07,1013.72,6.1,43,1
00:00:22:941,93.88,2.57,-136.99,93.88,-2.57,136.99,0.33,-0.65,-0.62,0.28,0.08,0.97,-0.1,-6.59,2.75,-5.13,-189.13,-442.79,-595.82,1.08,0.93,-0.03,1013.7,6.32,41,1
00:00:23:056,94.32,2.55,-137.03,94.32,-2.55,137.03,0.33,-0.66,-0.62,0.28,0.11,0.98,-0.09,-6.59,2.81,-5.19,-194.39,-462.12,-597.51,1.1,0.93,-0.02,1013.7,6.24,40,1
00:00:23:172,94.33,2.56,-137.19,94.33,-2.56,137.19,0.33,-0.66,-0.62,0.27,0.08,1,-0.16,-5.86,3.3,-5.19,-192.64,-470.9,-589.05,1.08,0.96,-0.08,1013.71,6.15,42,1
00:00:23:288,94.34,2.81,-137.35,94.34,-2.81,137.35,0.33,-0.66,-0.62,0.27,0.08,0.97,-0.07,-6.59,2.75,-5.31,-211.9,-448.06,-580.59,1.08,0.92,0.01,1013.71,6.3,43,1
00:00:23:404,93.7,2.61,-137.42,93.7,-2.61,137.42,0.32,-0.65,-0.63,0.27,0.09,0.99,-0.11,-6.1,2.87,-5.19,-215.4,-458.6,-590.74,1.09,0.94,-0.04,1013.7,6.25,41,1
00:00:23:520,93.75,2.34,-137.45,93.75,-2.34,137.45,0.32,-0.66,-0.63,0.28,0.1,0.98,-0.09,-6.47,2.99,-5.19,-210.15,-442.79,-602.59,1.1,0.94,-0.02,1013.7,6.38,42,1
00:00:23:635,93.9,2.41,-137.37,93.9,-2.41,137.37,0.32,-0.66,-0.62,0.28,0.08,1,-0.12,-6.16,3.05,-5.07,-194.39,-462.12,-590.74,1.08,0.96,-0.05,1013.68,6.4,41,1
00:00:23:751,94.24,2.43,-137.49,94.24,-2.43,137.49,0.32,-0.66,-0.62,0.27,0.08,1,-0.12,-6.23,3.05,-5.13,-206.65,-446.3,-595.82,1.07,0.96,-0.05,1013.69,6.39,40,1
00:00:23:866,94.52,2.59,-137.48,94.52,-2.59,137.48,0.32,-0.66,-0.62,0.27,0.09,0.95,-0.14,-6.77,2.93,-5.19,-204.9,-458.6,-600.9,1.08,0.91,-0.07,1013.69,6.49,44,1
00:00:23:982,94.42,2.59,-137.51,94.42,-2.59,137.51,0.32,-0.66,-0.62,0.27,0.08,1.02,-0.13,-6.1,3.36,-5.19,-196.14,-463.87,-605.98,1.07,0.97,-0.05,1013.69,6.4,41,1
00:00:24:098,94.13,2.57,-137.51,94.13,-2.57,137.51,0.32,-0.66,-0.62,0.27,0.1,0.99,-0.07,-6.65,2.56,-5.13,-203.14,-453.33,-595.82,1.1,0.95,0,1013.69,6.46,43,1
00:00:24:214,94.14,2.54,-137.5,94.14,-2.54,137.5,0.32,-0.66,-0.62,0.27,0.07,1.01,-0.09,-6.41,2.99,-5.07,-197.89,-444.55,-597.51,1.07,0.96,-0.01,1013.68,6.37,40,1
00:00:24:330,94.02,2.42,-137.47,94.02,-2.42,137.47,0.32,-0.66,-0.62,0.27,0.08,0.98,-0.1,-6.71,2.69,-5.25,-220.66,-446.3,-599.21,1.08,0.94,-0.03,1013.67,6.48,44,1
00:00:24:445,94.04,2.22,-137.46,94.04,-2.22,137.46,0.32,-0.66,-0.62,0.28,0.1,0.98,-0.13,-6.59,3.11,-5.25,-194.39,-441.03,-597.51,1.1,0.94,-0.06,1013.67,6.49,43,1
00:00:24:561,93.96,2.36,-137.45,93.96,-2.36,137.45,0.32,-0.66,-0.62,0.27,0.07,1.02,-0.11,-6.16,3.6,-5.13,-211.9,-462.12,-590.74,1.07,0.98,-0.04,1013.67,6.46,42,1
00:00:24:676,94.06,2.34,-137.58,94.06,-2.34,137.58,0.32,-0.66,-0.62,0.27,0.08,0.98,-0.07,-6.84,2.81,-5.31,-201.39,-455.09,-597.51,1.08,0.94,0,1013.66,6.53,42,1
00:00:24:792,94.43,2.16,-137.62,94.43,-2.16,137.62,0.32,-0.66,-0.62,0.27,0.08,0.98,-0.14,-6.9,2.81,-5.19,-201.39,-441.03,-587.36,1.08,0.94,-0.06,1013.67,6.62,43,1
00:00:24:922,94.23,2.38,-137.62,94.23,-2.38,137.62,0.32,-0.66,-0.62,0.27,0.07,0.97,-0.08,-6.84,2.93,-5.31,-192.64,-463.87,-595.82,1.07,0.93,0,1013.64,6.78,47,1
00:00:25:038,94.33,2.18,-137.71,94.33,-2.18,137.71,0.32,-0.66,-0.62,0.27,0.09,0.96,-0.09,-6.77,2.87,-5.19,-194.39,-458.6,-590.74,1.09,0.92,-0.01,1013.65,6.72,41,1
00:00:25:154,94.46,2.25,-137.84,94.46,-2.25,137.84,0.32,-0.66,-0.62,0.27,0.07,0.98,-0.15,-6.71,3.17,-5.25,-192.64,-456.85,-589.05,1.07,0.94,-0.07,1013.64,6.76,42,1
00:00:25:270,94.39,2.43,-137.86,94.39,-2.43,137.86,0.32,-0.66,-0.62,0.27,0.09,0.99,-0.12,-6.53,3.3,-5.31,-196.14,-449.82,-602.59,1.08,0.95,-0.05,1013.64,6.77,42,1
00:00:25:393,94.72,2.18,-137.81,94.72,-2.18,137.81,0.32,-0.66,-0.62,0.27,0.1,1,-0.07,-6.35,2.87,-5.13,-217.15,-456.85,-599.21,1.09,0.97,0.01,1013.64,6.85,41,1
00:00:25:509,94.35,2.36,-137.81,94.35,-2.36,137.81,0.32,-0.66,-0.62,0.27,0.1,1,-0.09,-6.53,2.81,-5.25,-201.39,-441.03,-587.36,1.1,0.96,-0.01,1013.63,6.79,40,1
00:00:25:624,94.15,2.47,-137.75,94.15,-2.47,137.75,0.32,-0.66,-0.62,0.27,0.1,0.98,-0.13,-6.41,3.23,-5.19,-211.9,-455.09,-600.9,1.09,0.93,-0.06,1013.63,6.89,41,1
00:00:25:740,94.43,2.58,-137.74,94.43,-2.58,137.74,0.32,-0.66,-0.62,0.27,0.07,1,-0.11,-6.04,3.3,-5.25,-204.9,-451.57,-597.51,1.07,0.95,-0.03,1013.63,6.83,39,1
00:00:25:855,94.07,2.47,-137.7,94.07,-2.47,137.7,0.32,-0.66,-0.62,0.27,0.07,1,-0.15,-6.35,3.11,-5.19,-217.15,-449.82,-599.21,1.07,0.96,-0.08,1013.63,6.85,43,1
00:00:25:971,94.54,2.35,-137.69,94.54,-2.35,137.69,0.32,-0.66,-0.62,0.27,0.09,0.96,-0.14,-6.65,3.11,-5.13,-196.14,-449.82,-592.43,1.09,0.92,-0.06,1013.63,6.8,42,1
00:00:26:086,94.24,2.47,-137.71,94.24,-2.47,137.71,0.32,-0.66,-0.62,0.27,0.07,1.02,-0.13,-5.8,3.48,-5.19,-208.4,-455.09,-597.51,1.07,0.98,-0.06,1013.62,6.93,39,1
00:00:26:202,94.14,2.51,-137.71,94.14,-2.51,137.71,0.32,-0.66,-0.62,0.27,0.06,0.98,-0.11,-6.47,2.62,-5.13,-199.64,-460.36,-585.66,1.06,0.94,-0.04,1013.61,7.02,43,1
00:00:26:318,94.26,2.44,-137.8,94.26,-2.44,137.8,0.32,-0.66,-0.62,0.27,0.1,0.97,-0.1,-5.74,3.17,-5.13,-197.89,-455.09,-597.51,1.09,0.92,-0.03,1013.62,6.92,40,1
00:00:26:434,94.12,2.97,-137.82,94.12,-2.97,137.82,0.32,-0.66,-0.63,0.27,0.09,0.85,-0.11,-7.39,2.75,-5.25,-210.15,-460.36,-578.89,1.09,0.8,-0.03,1013.62,6.93,43,1
00:00:26:550,93.52,3.11,-137.9,93.52,-3.11,137.9,0.32,-0.65,-0.63,0.27,0.07,1.05,-0.28,-8.18,4.09,-5.37,-197.89,-448.06,-590.74,1.07,1,-0.22,1013.61,7.02,41,1
00:00:26:665,93.01,2.52,-137.81,93.01,-2.52,137.81,0.32,-0.65,-0.63,0.27,0.1,1.14,-0.12,-9.7,2.69,-5.25,-206.65,-442.79,-585.66,1.1,1.1,-0.07,1013.61,6.94,41,1
00:00:26:781,92.87,2.45,-137.71,92.87,-2.45,137.71,0.32,-0.65,-0.63,0.28,0.09,0.89,-0.13,-9.46,3.48,-5.07,-225.91,-444.55,-583.97,1.09,0.85,-0.08,1013.6,7.07,42,1
00:00:26:896,93.54,2.29,-137.72,93.54,-2.29,137.72,0.32,-0.65,-0.63,0.28,0.08,0.93,-0.06,-6.65,2.99,-5,-208.4,-430.49,-597.51,1.07,0.89,0,1013.61,7.1,39,1
00:00:27:012,93.21,2.15,-137.56,93.21,-2.15,137.56,0.32,-0.65,-0.63,0.28,0.07,1.04,-0.2,-5.55,3.48,-5.31,-208.4,-448.06,-580.59,1.06,1,-0.15,1013.6,7.08,40,1
00:00:27:128,93.54,2.03,-137.61,93.54,-2.03,137.61,0.32,-0.66,-0.63,0.28,0.08,1.02,-0.12,-5,3.54,-5.19,-204.9,-448.06,-583.97,1.08,0.98,-0.06,1013.62,7,41,1
00:00:27:244,90.87,2.94,-137.6,90.87,-2.94,137.6,0.32,-0.64,-0.64,0.28,0.09,0.94,-0.14,-5.98,3.42,-5.37,-211.9,-455.09,-587.36,1.09,0.89,-0.12,1013.59,7.05,43,1
00:00:27:360,91.18,2.97,-137.58,91.18,-2.97,137.58,0.32,-0.64,-0.64,0.28,0.1,1,-0.02,-6.23,2.62,-5.19,-199.64,-456.85,-592.43,1.1,0.95,0,1013.62,6.93,41,1
00:00:27:475,91.63,3.03,-137.56,91.63,-3.03,137.56,0.32,-0.64,-0.64,0.28,0.11,0.98,-0.06,-6.16,3.17,-5.19,-220.66,-470.9,-595.82,1.11,0.93,-0.04,1013.62,6.82,39,1
00:00:27:591,92.59,2.77,-137.62,92.59,-2.77,137.62,0.32,-0.65,-0.63,0.28,0.09,1.01,-0.08,-4.58,3.3,-5,-201.39,-448.06,-594.13,1.09,0.96,-0.03,1013.62,6.87,43,1
00:00:27:717,90.61,3.15,-137.51,90.61,-3.15,137.51,0.32,-0.64,-0.65,0.28,0.1,1,-0.1,-4.7,2.75,-5.25,-211.9,-451.57,-580.59,1.1,0.95,-0.09,1013.61,7.01,43,1
00:00:27:833,91.97,2.94,-137.56,91.97,-2.94,137.56,0.32,-0.64,-0.64,0.28,0.11,0.95,-0.12,-4.09,3.78,-5.13,-187.38,-455.09,-607.67,1.11,0.9,-0.08,1013.63,6.9,41,1
00:00:27:949,91.29,2.68,-137.46,91.29,-2.68,137.46,0.32,-0.64,-0.64,0.28,0.08,0.97,-0.11,-5.49,3.36,-4.94,-199.64,-442.79,-585.66,1.08,0.93,-0.08,1013.63,6.95,39,1
00:00:28:064,90.81,2.4,-137.38,90.81,-2.4,137.38,0.31,-0.64,-0.64,0.28,0.06,0.97,0.14,-9.58,1.04,-5.37,-201.39,-437.52,-597.51,1.06,0.93,0.15,1013.62,6.96,44,1
00:00:28:180,91.19,2.4,-137.08,91.19,-2.4,137.08,0.32,-0.64,-0.64,0.28,0.05,1.09,-0.2,-2.56,4.09,-5.43,-189.13,-449.82,-599.21,1.05,1.04,-0.18,1013.63,6.84,47,1
00:00:28:295,92.36,2.37,-137.11,92.36,-2.37,137.11,0.32,-0.65,-0.63,0.28,0.15,0.98,0.06,-5.86,1.71,-4.94,-201.39,-458.6,-600.9,1.14,0.94,0.11,1013.63,6.8,41,1
00:00:28:411,87.68,3.43,-137.04,87.68,-3.43,137.04,0.31,-0.62,-0.66,0.29,0.05,0.99,-0.07,-5.07,2.38,-5.07,-204.9,-472.66,-597.51,1.05,0.93,-0.11,1013.64,6.83,38,1
00:00:28:527,88.59,3.05,-136.83,88.59,-3.05,136.83,0.32,-0.62,-0.65,0.29,0.05,0.98,-0.22,-5.07,2.14,-5.31,-201.39,-448.06,-604.28,1.05,0.93,-0.25,1013.64,6.73,45,1
00:00:28:643,88.27,3.53,-136.53,88.27,-3.53,136.53,0.32,-0.62,-0.66,0.29,0.12,0.97,0.22,-7.51,0.92,-5.37,-201.39,-462.12,-604.28,1.11,0.91,0.19,1013.63,6.82,41,1
00:00:28:759,87.12,4.15,-136.1,87.12,-4.15,136.1,0.32,-0.61,-0.66,0.29,0.07,1.04,-0.1,-8.18,0.85,-4.82,-210.15,-442.79,-605.98,1.06,0.96,-0.15,1013.64,6.74,40,1
00:00:28:874,88.54,3.52,-135.73,88.54,-3.52,135.73,0.32,-0.62,-0.65,0.29,0.11,0.94,0.06,-5.86,1.04,-5.13,-206.65,-453.33,-592.43,1.1,0.88,0.04,1013.62,6.98,40,1
00:00:28:990,85.99,3.77,-135.54,85.99,-3.77,135.54,0.32,-0.6,-0.67,0.3,0.07,0.96,0.03,-7.75,0.06,-5.43,-194.39,-458.6,-597.51,1.07,0.9,-0.04,1013.64,6.76,41,1
00:00:29:105,88.03,3.37,-135.25,88.03,-3.37,135.25,0.32,-0.61,-0.65,0.3,0.08,1.04,-0.23,-2.08,1.1,-5.25,-203.14,-439.27,-602.59,1.08,0.98,-0.26,1013.64,6.82,43,1
00:00:29:221,88.74,3.17,-134.89,88.74,-3.17,134.89,0.33,-0.62,-0.65,0.3,0.1,1,0.02,-6.96,-0.92,-5.13,-199.64,-456.85,-595.82,1.1,0.95,0,1013.63,6.82,41,1
00:00:29:337,88.13,3.53,-134.56,88.13,-3.53,134.56,0.33,-0.61,-0.65,0.3,0.08,0.96,-0.13,-7.26,-0.55,-5.25,-217.15,-446.3,-619.52,1.07,0.9,-0.16,1013.64,6.83,41,1
00:00:29:453,89.58,3.06,-134.18,89.58,-3.06,134.18,0.33,-0.62,-0.64,0.3,0.08,0.99,-0.09,-6.59,-0.43,-5.37,-197.89,-444.55,-607.67,1.07,0.93,-0.1,1013.62,7.02,44,1
00:00:29:569,90.08,2.87,-133.89,90.08,-2.87,133.89,0.33,-0.62,-0.64,0.3,0.1,1.01,0.04,-7.87,-2.5,-5.31,-210.15,-456.85,-616.13,1.1,0.96,0.04,1013.62,6.87,45,1
00:00:29:684,90.4,2.79,-133.54,90.4,-2.79,133.54,0.34,-0.62,-0.64,0.3,0.12,0.99,-0.06,-6.23,-2.44,-5,-197.89,-430.49,-614.44,1.12,0.94,-0.05,1013.63,6.86,43,1
00:00:29:800,90.67,2.25,-133.1,90.67,-2.25,133.1,0.34,-0.63,-0.63,0.31,0.11,0.95,-0.02,-5.86,-3.11,-4.94,-197.89,-426.97,-614.44,1.11,0.91,0,1013.63,6.9,41,1
00:00:29:915,90.64,2.34,-132.6,90.64,-2.34,132.6,0.34,-0.62,-0.63,0.31,0.08,1.03,-0.09,-6.47,-3.11,-5.37,-220.66,-421.7,-636.44,1.08,0.99,-0.07,1013.62,6.92,43,1
00:00:30:041,90.38,2.34,-131.97,90.38,-2.34,131.97,0.34,-0.62,-0.63,0.32,0.04,1,0.01,-8.48,-2.99,-5.37,-211.9,-423.46,-621.21,1.04,0.96,0.01,1013.62,6.93,39,1
00:00:30:157,91.43,2.13,-131.51,91.43,-2.13,131.51,0.35,-0.63,-0.62,0.32,0.08,1.05,-0.15,-6.59,-2.99,-5.07,-215.4,-423.46,-617.82,1.08,1.01,-0.13,1013.62,6.92,37,1
00:00:30:273,91.75,1.68,-131.15,91.75,-1.68,131.15,0.35,-0.63,-0.62,0.32,0.06,0.97,-0.02,-8.54,-4.03,-4.94,-215.4,-423.46,-631.37,1.05,0.94,0.01,1013.6,7.07,42,1
00:00:30:417,91.54,1.31,-130.57,91.54,-1.31,130.57,0.35,-0.63,-0.62,0.33,0.04,0.94,-0.07,-7.57,-3.42,-5.13,-215.4,-405.89,-627.98,1.04,0.92,-0.04,1013.6,7.09,38,1
00:00:30:533,91.35,1.18,-130.15,91.35,-1.18,130.15,0.35,-0.62,-0.62,0.33,0.05,0.92,-0.05,-8.42,-4.58,-4.94,-218.91,-398.86,-621.21,1.05,0.9,-0.02,1013.63,6.9,45,1
00:00:30:649,91.92,0.52,-129.79,91.92,-0.52,129.79,0.35,-0.63,-0.61,0.33,0.04,0.96,-0.01,-7.93,-4.27,-4.94,-218.91,-402.38,-614.44,1.04,0.95,0.03,1013.62,6.9,41,1
00:00:30:764,92.12,0.31,-129.54,92.12,-0.31,129.54,0.35,-0.63,-0.61,0.33,0.05,1.02,-0.12,-7.81,-3.78,-5.13,-222.41,-416.43,-634.75,1.05,1.01,-0.09,1013.63,6.85,41,1
00:00:30:880,93.42,1.11,-129.37,93.42,-1.11,129.37,0.36,-0.63,-0.6,0.33,0.13,1.01,-0.26,-6.65,-1.16,-5.19,-238.17,-414.67,-633.06,1.13,0.99,-0.21,1013.62,6.95,40,1
00:00:30:995,93.53,1.89,-129.53,93.53,-1.89,129.53,0.36,-0.63,-0.6,0.32,0.1,0.91,-0.08,-7.45,0.12,-5.07,-218.91,-416.43,-638.14,1.09,0.88,-0.02,1013.61,7.12,41,1
00:00:31:111,92.81,2,-129.59,92.81,-2,129.59,0.36,-0.63,-0.61,0.32,0.08,0.96,-0.05,-6.59,-1.34,-5.07,-220.66,-407.65,-656.76,1.08,0.92,0,1013.59,6.98,44,1
00:00:31:227,93.27,1.94,-129.51,93.27,-1.94,129.51,0.36,-0.63,-0.61,0.32,0.09,1,-0.21,-5.25,-0.12,-4.94,-232.91,-405.89,-641.52,1.09,0.97,-0.15,1013.6,7.18,40,1
00:00:31:343,92.49,1.5,-129.54,92.49,-1.5,129.54,0.36,-0.63,-0.61,0.33,0.08,0.99,0.01,-6.53,-1.22,-4.64,-229.41,-398.86,-648.29,1.08,0.97,0.05,1013.6,7.13,40,1
00:00:31:459,92.36,0.94,-129.25,92.36,-0.94,129.25,0.36,-0.63,-0.61,0.33,0,1.01,-0.08,-5.37,-1.83,-5.19,-218.91,-391.83,-655.06,1,1,-0.03,1013.61,6.97,41,1
00:00:31:574,93.23,1,-128.91,93.23,-1,128.91,0.36,-0.63,-0.6,0.33,0.07,1.02,-0.06,-5.37,-1.95,-4.94,-229.41,-381.29,-641.52,1.07,1,-0.01,1013.61,7.02,41,1
00:00:31:690,93.09,1.19,-128.57,93.09,-1.19,128.57,0.36,-0.63,-0.6,0.33,0.05,0.95,-0.05,-7.45,-3.23,-4.76,-234.67,-400.62,-649.99,1.05,0.93,0,1013.62,7,43,1
00:00:31:805,93.1,1.05,-128.32,93.1,-1.05,128.32,0.36,-0.63,-0.6,0.33,0.05,0.92,-0.17,-6.41,-2.75,-5.19,-232.91,-388.32,-644.91,1.05,0.9,-0.12,1013.6,6.8,43,1
00:00:31:921,93.76,1.6,-128.07,93.76,-1.6,128.07,0.37,-0.63,-0.6,0.33,0.12,0.99,-0.06,-7.45,-2.87,-5.07,-239.92,-377.78,-651.68,1.12,0.96,0,1013.62,6.88,41,1
00:00:32:037,92.57,2.95,-127.99,92.57,-2.95,127.99,0.37,-0.62,-0.61,0.33,0.08,1.1,-0.06,-6.47,-0.06,-5.13,-231.16,-397.1,-656.76,1.08,1.05,-0.02,1013.62,6.87,39,1
00:00:32:153,92.87,2.63,-128,92.87,-2.63,128,0.37,-0.62,-0.61,0.33,0.06,1.04,-0.04,-5.68,0.18,-5.25,-222.41,-370.75,-665.22,1.06,0.99,0.01,1013.62,6.99,43,1
00:00:32:269,91.78,3.17,-127.81,91.78,-3.17,127.81,0.37,-0.61,-0.61,0.33,0.1,0.99,0.08,-7.14,-0.43,-5.19,-229.41,-381.29,-661.83,1.1,0.93,0.11,1013.62,6.91,41,1
00:00:32:384,92.35,2.73,-127.75,92.35,-2.73,127.75,0.37,-0.62,-0.61,0.33,0.06,0.96,-0.18,-5.92,0.92,-4.7,-232.91,-370.75,-675.38,1.06,0.92,-0.13,1013.62,6.96,44,1
00:00:32:500,92.47,1.64,-127.55,92.47,-1.64,127.55,0.37,-0.62,-0.6,0.34,-0.02,0.93,-0.13,-6.59,1.04,-4.82,-246.92,-367.23,-675.38,0.98,0.9,-0.09,1013.62,6.98,43,1
00:00:32:615,89.55,1.98,-127.04,89.55,-1.98,127.04,0.37,-0.6,-0.62,0.35,0.05,0.97,-0.18,-9.22,-2.44,-4.94,-239.92,-363.72,-648.29,1.05,0.93,-0.19,1013.61,6.97,43,1
00:00:32:757,90.18,1.66,-126.63,90.18,-1.66,126.63,0.37,-0.61,-0.61,0.35,0.05,0.97,-0.11,-8.3,-1.71,-4.58,-229.41,-370.75,-668.6,1.05,0.94,-0.11,1013.61,6.99,43,1
00:00:32:873,91.04,1.27,-126.43,91.04,-1.27,126.43,0.37,-0.61,-0.61,0.35,0.06,0.99,-0.09,-7.14,-1.59,-4.76,-245.17,-365.48,-660.14,1.06,0.97,-0.07,1013.62,6.82,43,1
00:00:32:989,92.02,1.28,-126.22,92.02,-1.28,126.22,0.37,-0.61,-0.6,0.35,0.08,0.99,-0.11,-7.14,-2.01,-4.82,-238.17,-365.48,-666.91,1.08,0.97,-0.07,1013.62,6.87,43,1
00:00:33:104,93.46,1.55,-126.1,93.46,-1.55,126.1,0.38,-0.62,-0.59,0.34,0.13,1.03,-0.24,-5.07,-0.31,-5.25,-238.17,-354.93,-660.14,1.13,1.01,-0.18,1013.62,6.96,42,1
00:00:33:220,94.47,2.08,-126.19,94.47,-2.08,126.19,0.38,-0.63,-0.59,0.33,0.08,0.9,-0.22,-5.74,2.26,-4.88,-241.67,-368.99,-677.07,1.08,0.86,-0.14,1013.64,6.91,47,1
00:00:33:336,94.61,2.24,-126.29,94.61,-2.24,126.29,0.39,-0.63,-0.59,0.33,0.08,1.01,-0.04,-5.13,1.22,-5,-248.68,-358.45,-666.91,1.08,0.97,0.04,1013.64,6.78,41,1
00:00:33:452,93.57,2.46,-126.4,93.57,-2.46,126.4,0.38,-0.62,-0.6,0.33,0.08,1.06,-0.11,-5.13,0.92,-5.19,-238.17,-351.42,-660.14,1.07,1.02,-0.05,1013.64,6.8,45,1
00:00:33:568,92.78,2.82,-126.37,92.78,-2.82,126.37,0.38,-0.61,-0.6,0.34,0.1,1.03,-0.04,-6.41,0.55,-5.13,-241.67,-365.48,-677.07,1.1,0.98,0.01,1013.63,6.84,43,1
00:00:33:683,90.68,2.58,-126.27,90.68,-2.58,126.27,0.38,-0.6,-0.61,0.34,0.04,0.99,-0.11,-5.49,0.61,-5.07,-241.67,-358.45,-677.07,1.04,0.95,-0.1,1013.64,6.71,39,1
00:00:33:799,91.28,1.6,-126.02,91.28,-1.6,126.02,0.37,-0.61,-0.61,0.35,0.07,1.02,-0.15,-5.31,-0.12,-5.19,-243.42,-342.63,-671.99,1.07,0.99,-0.13,1013.66,6.49,42,1
00:00:33:914,90.85,2.06,-125.65,90.85,-2.06,125.65,0.38,-0.6,-0.61,0.35,0.08,0.98,0.02,-8.12,-1.16,-5.13,-255.68,-340.88,-687.22,1.08,0.95,0.04,1013.67,6.53,40,1
00:00:34:030,91.06,1.91,-125.28,91.06,-1.91,125.28,0.38,-0.6,-0.61,0.35,0.03,1.01,-0.23,-8.06,-0.12,-5.25,-246.92,-349.66,-658.45,1.03,0.98,-0.21,1013.66,6.63,45,1
00:00:34:146,92.89,1.37,-125.18,92.89,-1.37,125.18,0.38,-0.62,-0.59,0.35,0.08,0.93,-0.11,-4.88,0.18,-5.07,-248.68,-344.39,-680.45,1.08,0.91,-0.06,1013.65,6.76,45,1
00:00:34:262,91.29,2.61,-125.08,91.29,-2.61,125.08,0.38,-0.6,-0.61,0.35,0.04,1,-0.2,-8.61,0.43,-5.07,-239.92,-335.61,-699.07,1.04,0.96,-0.18,1013.64,6.82,44,1
00:00:34:378,92.19,3.39,-124.82,92.19,-3.39,124.82,0.39,-0.6,-0.6,0.34,0.14,1.12,-0.28,-1.46,1.89,-4.94,-234.67,-337.36,-680.45,1.14,1.06,-0.24,1013.64,6.78,46,1
00:00:34:493,93.03,2.6,-124.95,93.03,-2.6,124.95,0.39,-0.61,-0.6,0.34,0.09,0.92,0.09,-6.59,1.53,-5.07,-250.43,-335.61,-688.92,1.08,0.88,0.14,1013.64,6.87,39,1
00:00:34:609,92.3,2.55,-124.83,92.3,-2.55,124.83,0.39,-0.61,-0.6,0.35,0.07,0.99,0.06,-8.42,1.04,-5.31,-246.92,-346.15,-699.07,1.07,0.95,0.1,1013.61,6.99,42,1
00:00:34:724,92.17,3.01,-124.81,92.17,-3.01,124.81,0.39,-0.61,-0.6,0.34,0.07,1.02,-0.09,-4.64,2.56,-5.07,-250.43,-353.18,-682.15,1.07,0.97,-0.05,1013.61,7.01,44,1
00:00:34:840,91.3,3.38,-124.91,91.3,-3.38,124.91,0.39,-0.6,-0.61,0.34,0.12,0.89,0.07,-7.14,1.46,-4.88,-238.17,-340.88,-677.07,1.12,0.83,0.1,1013.62,6.94,45,1
00:00:34:956,88.44,3.43,-124.87,88.44,-3.43,124.87,0.38,-0.58,-0.62,0.35,0.04,1.07,-0.27,-3.85,2.69,-5.31,-234.67,-344.39,-687.22,1.04,1.01,-0.3,1013.61,6.95,41,1
00:00:35:082,88.33,3.61,-124.7,88.33,-3.61,124.7,0.38,-0.58,-0.62,0.35,0.01,1.08,-0.14,-4.33,1.89,-5.49,-243.42,-339.12,-685.53,1.01,1.01,-0.17,1013.62,6.88,45,1
00:00:35:198,89.82,3.41,-124.47,89.82,-3.41,124.47,0.39,-0.59,-0.61,0.35,0.08,1.04,-0.16,-4.33,1.1,-5.13,-255.68,-340.88,-690.61,1.08,0.98,-0.16,1013.62,6.87,45,1
00:00:35:313,89.06,3.85,-124.17,89.06,-3.85,124.17,0.39,-0.58,-0.62,0.35,0.09,0.96,-0.04,-7.2,0.49,-5,-236.42,-335.61,-695.69,1.09,0.89,-0.06,1013.63,6.81,44,1
00:00:35:459,90.02,3.31,-123.8,90.02,-3.31,123.8,0.39,-0.59,-0.61,0.36,0.09,0.97,-0.03,-7.32,0.43,-5.43,-248.68,-326.82,-683.84,1.09,0.91,-0.03,1013.63,6.83,43,1
00:00:35:574,89.28,3.34,-123.57,89.28,-3.34,123.57,0.39,-0.58,-0.61,0.36,0.06,1.02,-0.11,-6.35,1.46,-5.74,-239.92,-318.03,-692.3,1.06,0.96,-0.13,1013.63,6.88,39,1
00:00:35:690,90.52,3.09,-123.33,90.52,-3.09,123.33,0.39,-0.59,-0.61,0.36,0.09,1.02,-0.03,-6.23,0.92,-5.25,-245.17,-333.85,-683.84,1.09,0.96,-0.02,1013.64,6.79,44,1
00:00:35:806,90.15,2.94,-123.27,90.15,-2.94,123.27,0.39,-0.59,-0.61,0.36,0.07,0.99,-0.06,-7.51,1.04,-5.19,-252.18,-316.28,-697.38,1.07,0.94,-0.06,1013.64,6.86,41,1
00:00:35:922,90.87,2.67,-123.07,90.87,-2.67,123.07,0.39,-0.59,-0.6,0.36,0.06,0.97,-0.18,-5.49,1.1,-5.37,-252.18,-312.76,-700.77,1.06,0.92,-0.16,1013.62,6.89,44,1
00:00:36:038,91.22,2.67,-122.89,91.22,-2.67,122.89,0.4,-0.6,-0.6,0.36,0.09,0.94,-0.08,-7.02,1.28,-5.13,-241.67,-316.28,-697.38,1.08,0.89,-0.06,1013.62,6.94,43,1
00:00:36:153,91.18,2.54,-122.86,91.18,-2.54,122.86,0.39,-0.6,-0.6,0.36,0.06,1.04,-0.17,-6.16,2.2,-4.88,-239.92,-335.61,-699.07,1.06,0.99,-0.15,1013.63,6.84,41,1
00:00:36:269,92.34,2.09,-123.03,92.34,-2.09,123.03,0.4,-0.6,-0.59,0.36,0.07,1.04,-0.07,-6.04,1.89,-4.94,-246.92,-318.03,-695.69,1.07,1,-0.03,1013.62,6.91,45,1
00:00:36:384,92.56,1.53,-123.18,92.56,-1.53,123.18,0.39,-0.61,-0.59,0.36,0.03,0.95,-0.03,-6.65,2.5,-4.94,-248.68,-330.33,-680.45,1.03,0.92,0.02,1013.63,6.89,43,1
00:00:36:500,93.17,1.4,-123.36,93.17,-1.4,123.36,0.39,-0.61,-0.59,0.36,0.11,1,-0.21,-5.8,2.32,-4.88,-243.42,-321.55,-712.61,1.1,0.98,-0.16,1013.62,6.9,44,1
00:00:36:616,93.27,1.73,-123.52,93.27,-1.73,123.52,0.39,-0.61,-0.59,0.35,0.09,1,-0.13,-7.26,3.11,-4.7,-252.18,-319.79,-704.15,1.09,0.97,-0.08,1013.63,6.78,43,1
00:00:36:732,93.21,2.25,-123.7,93.21,-2.25,123.7,0.4,-0.61,-0.59,0.35,0.09,0.99,-0.1,-8.12,3.72,-4.88,-248.68,-316.28,-690.61,1.09,0.96,-0.04,1013.64,6.84,41,1
00:00:36:848,93.4,2.58,-123.94,93.4,-2.58,123.94,0.4,-0.61,-0.59,0.35,0.1,0.97,-0.13,-7.14,4.46,-5.19,-253.93,-332.09,-699.07,1.09,0.93,-0.07,1013.64,6.76,43,1
00:00:36:963,93.77,2.63,-124.2,93.77,-2.63,124.2,0.4,-0.61,-0.59,0.34,0.1,0.98,-0.11,-7.39,4.09,-4.88,-241.67,-316.28,-693.99,1.1,0.94,-0.05,1013.64,6.8,44,1
00:00:37:079,94.31,2.99,-124.37,94.31,-2.99,124.37,0.4,-0.62,-0.59,0.34,0.08,1,-0.08,-7.45,4.94,-5.19,-243.42,-321.55,-702.46,1.08,0.94,0,1013.64,6.81,41,1
00:00:37:194,94.39,2.97,-124.55,94.39,-2.97,124.55,0.4,-0.62,-0.59,0.34,0.12,0.95,-0.11,-6.9,4.39,-5.37,-253.93,-325.06,-709.23,1.11,0.9,-0.03,1013.63,6.79,41,1
00:00:37:310,93.91,2.95,-124.74,93.91,-2.95,124.74,0.4,-0.61,-0.59,0.34,0.09,1.02,-0.1,-6.71,4.39,-5.19,-252.18,-316.28,-693.99,1.08,0.97,-0.03,1013.63,6.84,41,1
00:00:37:426,93.25,3.52,-124.8,93.25,-3.52,124.8,0.4,-0.61,-0.6,0.34,0.1,0.98,-0.02,-7.57,3.85,-5.62,-246.92,-335.61,-699.07,1.1,0.92,0.03,1013.63,6.78,42,1
00:00:37:542,92.89,3.97,-124.88,92.89,-3.97,124.88,0.4,-0.61,-0.6,0.34,0.14,0.92,-0.06,-7.81,4.03,-5.25,-245.17,-312.76,-700.77,1.13,0.85,-0.01,1013.63,6.77,41,1
00:00:37:658,92.86,3.34,-124.85,92.86,-3.34,124.85,0.39,-0.61,-0.6,0.34,0.08,0.97,-0.07,-7.87,4.27,-5.49,-245.17,-326.82,-707.54,1.08,0.92,-0.02,1013.65,6.64,41,1
00:00:37:785,92.93,3.22,-125.01,92.93,-3.22,125.01,0.39,-0.61,-0.6,0.34,0.08,1.01,-0.04,-7.02,5.31,-5.8,-250.43,-314.52,-699.07,1.07,0.96,0.01,1013.66,6.69,41,1
00:00:37:901,93.03,3.09,-125.07,93.03,-3.09,125.07,0.39,-0.61,-0.6,0.34,0.08,0.99,-0.16,-5.19,5.74,-5.31,-236.42,-314.52,-695.69,1.07,0.93,-0.11,1013.66,6.73,43,1
00:00:38:017,93.34,2.49,-125.24,93.34,-2.49,125.24,0.39,-0.61,-0.6,0.34,0.07,1.01,-0.05,-6.16,5.13,-5.07,-252.18,-337.36,-704.15,1.07,0.97,0.01,1013.65,6.77,43,1
00:00:38:132,93.08,2.49,-125.52,93.08,-2.49,125.52,0.39,-0.61,-0.6,0.34,0.07,1.03,-0.12,-6.71,5.62,-5.55,-255.68,-323.31,-697.38,1.06,0.98,-0.07,1013.65,6.74,42,1
00:00:38:248,93.63,2.1,-125.79,93.63,-2.1,125.79,0.38,-0.62,-0.59,0.34,0.09,1,-0.16,-6.04,6.16,-5.13,-253.93,-339.12,-688.92,1.08,0.96,-0.1,1013.65,6.61,43,1
00:00:38:363,93.5,1.97,-126.16,93.5,-1.97,126.16,0.38,-0.62,-0.6,0.34,0.08,1,-0.08,-7.32,5.86,-5,-257.43,-328.58,-702.46,1.08,0.97,-0.02,1013.66,6.64,43,1
00:00:38:479,93.65,2.06,-126.4,93.65,-2.06,126.4,0.38,-0.62,-0.6,0.34,0.08,0.98,-0.12,-6.96,6.23,-5.07,-269.69,-319.79,-700.77,1.07,0.95,-0.05,1013.66,6.57,42,1
00:00:38:594,93.66,2.43,-126.52,93.66,-2.43,126.52,0.38,-0.62,-0.6,0.33,0.09,0.97,-0.08,-8.61,5.68,-5,-267.94,-328.58,-702.46,1.09,0.93,-0.01,1013.66,6.51,41,1
00:00:38:710,93.71,2.54,-126.66,93.71,-2.54,126.66,0.38,-0.62,-0.6,0.33,0.05,1.02,-0.21,-5.98,7.02,-4.88,-246.92,-335.61,-702.46,1.05,0.98,-0.15,1013.67,6.54,43,1
00:00:38:826,94.47,2.47,-126.96,94.47,-2.47,126.96,0.38,-0.63,-0.59,0.33,0.1,0.99,-0.11,-5.92,6.59,-4.94,-246.92,-346.15,-695.69,1.09,0.95,-0.04,1013.67,6.58,41,1
00:00:38:942,91.23,3.68,-127.05,91.23,-3.68,127.05,0.38,-0.61,-0.62,0.33,0.12,0.96,0.01,-10.01,5.07,-5,-252.18,-337.36,-700.77,1.11,0.89,0.03,1013.66,6.59,41,1
00:00:39:058,91.43,3.45,-126.99,91.43,-3.45,126.99,0.38,-0.61,-0.61,0.33,0.07,1.02,-0.29,-3.6,7.02,-5,-246.92,-321.55,-685.53,1.07,0.96,-0.27,1013.66,6.6,45,1
00:00:39:173,92.32,3.32,-127.13,92.32,-3.32,127.13,0.38,-0.61,-0.61,0.33,0.13,0.9,0.12,-6.16,5.55,-5.25,-243.42,-346.15,-702.46,1.13,0.84,0.16,1013.65,6.61,43,1
00:00:39:289,87.63,4.02,-127.18,87.63,-4.02,127.18,0.37,-0.59,-0.64,0.34,0.09,0.98,-0.12,-6.29,5.25,-5.43,-239.92,-339.12,-692.3,1.09,0.91,-0.16,1013.66,6.59,44,1
00:00:39:404,89.48,3.55,-127.18,89.48,-3.55,127.18,0.37,-0.6,-0.62,0.34,0.08,1.04,-0.17,-2.01,6.77,-5.25,-234.67,-358.45,-704.15,1.08,0.98,-0.18,1013.66,6.63,42,1
00:00:39:520,89.59,3.44,-127.22,89.59,-3.44,127.22,0.37,-0.6,-0.62,0.34,0.05,0.94,0,-5.43,5.31,-5.37,-241.67,-340.88,-690.61,1.05,0.88,-0.01,1013.64,6.58,41,1
00:00:39:636,90.5,2.93,-127.16,90.5,-2.93,127.16,0.37,-0.6,-0.62,0.34,0.07,1.04,-0.15,-3.66,5.31,-5.43,-248.68,-351.42,-704.15,1.07,0.99,-0.14,1013.66,6.57,43,1
00:00:39:752,91.5,2.5,-127.25,91.5,-2.5,127.25,0.37,-0.61,-0.61,0.34,0.09,0.97,-0.05,-4.15,5.43,-5.37,-260.93,-346.15,-709.23,1.09,0.93,-0.03,1013.66,6.54,45,1
00:00:39:868,91.2,2.38,-127.24,91.2,-2.38,127.24,0.37,-0.61,-0.61,0.34,0.06,1.02,0,-6.29,4.7,-5.43,-243.42,-342.63,-702.46,1.06,0.98,0.02,1013.68,6.52,40,1
00:00:39:983,91.76,2.02,-127.31,91.76,-2.02,127.31,0.37,-0.61,-0.61,0.34,0.08,0.99,-0.1,-4.76,5.86,-5.13,-243.42,-349.66,-695.69,1.08,0.95,-0.06,1013.68,6.52,43,1
00:00:40:109,91.4,1.91,-127.38,91.4,-1.91,127.38,0.37,-0.61,-0.61,0.34,0.08,1.07,-0.26,-4.58,6.04,-5.25,-239.92,-349.66,-712.61,1.08,1.03,-0.23,1013.68,6.34,43,1
00:00:40:224,92.73,2.06,-127.69,92.73,-2.06,127.69,0.37,-0.62,-0.6,0.33,0.12,1.01,-0.15,-7.81,7.14,-5.25,-236.42,-349.66,-702.46,1.12,0.97,-0.1,1013.68,6.5,45,1
00:00:40:340,92.56,1.8,-128.19,92.56,-1.8,128.19,0.37,-0.62,-0.61,0.33,0.03,0.97,-0.12,-9.22,9.34,-5.49,-252.18,-361.96,-697.38,1.03,0.94,-0.07,1013.66,6.66,45,1
00:00:40:456,92.38,1.5,-128.64,92.38,-1.5,128.64,0.36,-0.62,-0.61,0.33,0.05,0.99,-0.14,-7.69,8.36,-5.37,-241.67,-344.39,-700.77,1.05,0.97,-0.1,1013.67,6.54,43,1
00:00:40:577,91.19,1.83,-128.91,91.19,-1.83,128.91,0.36,-0.62,-0.62,0.33,0.05,1.05,-0.22,-8.12,9.09,-5.25,-232.91,-356.69,-699.07,1.05,1.02,-0.2,1013.65,6.68,42,1
00:00:40:692,91.64,1.55,-129.23,91.64,-1.55,129.23,0.36,-0.62,-0.61,0.33,0.1,1,-0.18,-9.64,8.24,-4.94,-241.67,-358.45,-700.77,1.09,0.98,-0.15,1013.64,6.79,42,1
00:00:40:808,91.79,2.37,-129.64,91.79,-2.37,129.64,0.36,-0.62,-0.62,0.32,0.15,0.97,-0.06,-10.86,9.09,-5.13,-252.18,-368.99,-683.84,1.14,0.93,-0.03,1013.62,7.02,43,1
00:00:40:923,91.1,2.73,-130.26,91.1,-2.73,130.26,0.36,-0.62,-0.62,0.32,0.11,1.01,-0.19,-10.99,10.62,-5.07,-250.43,-374.26,-688.92,1.11,0.97,-0.17,1013.61,7.13,49,1
00:00:41:039,90.58,2.81,-130.81,90.58,-2.81,130.81,0.35,-0.62,-0.63,0.32,0.09,1,-0.17,-10.44,10.31,-5,-234.67,-383.05,-683.84,1.09,0.95,-0.16,1013.59,7.02,43,1
00:00:41:155,90.85,2.95,-131.39,90.85,-2.95,131.39,0.35,-0.62,-0.63,0.31,0.08,0.96,-0.14,-8.67,10.74,-4.82,-234.67,-383.05,-683.84,1.08,0.91,-0.13,1013.6,7.02,45,1
00:00:41:271,92.11,2.76,-131.95,92.11,-2.76,131.95,0.35,-0.63,-0.62,0.31,0.1,0.98,-0.11,-6.04,11.47,-5,-257.43,-377.78,-682.15,1.1,0.93,-0.08,1013.6,7.06,42,1
00:00:41:387,93.32,2.46,-132.54,93.32,-2.46,132.54,0.35,-0.64,-0.62,0.3,0.11,0.95,0.05,-6.59,10.19,-5.25,-234.67,-393.59,-680.45,1.11,0.91,0.11,1013.62,7.08,44,1
00:00:41:502,90.43,2.24,-132.74,90.43,-2.24,132.74,0.34,-0.62,-0.63,0.31,0.09,0.96,0.08,-7.57,8.3,-5.13,-248.68,-400.62,-680.45,1.09,0.92,0.09,1013.61,6.94,40,1
00:00:41:618,89.91,3.07,-132.79,89.91,-3.07,132.79,0.34,-0.62,-0.64,0.31,0.04,1.02,-0.32,-3.6,9.22,-4.88,-250.43,-384.8,-661.83,1.04,0.97,-0.33,1013.6,7.03,44,1
00:00:41:733,90.19,3.21,-132.92,90.19,-3.21,132.92,0.34,-0.62,-0.64,0.31,0.08,0.99,0.09,-6.29,8.18,-5.25,-236.42,-398.86,-668.6,1.08,0.94,0.09,1013.61,7.05,43,1
00:00:41:849,87.51,4.27,-132.85,87.51,-4.27,132.85,0.34,-0.6,-0.65,0.31,0.14,0.99,-0.11,-6.9,7.39,-5.43,-243.42,-405.89,-678.76,1.13,0.92,-0.15,1013.61,7.03,40,1
00:00:41:965,89.02,3.95,-132.97,89.02,-3.95,132.97,0.34,-0.61,-0.64,0.31,0.11,1,-0.13,-6.35,8.3,-5.25,-241.67,-386.56,-683.84,1.11,0.93,-0.14,1013.61,6.89,39,1
00:00:42:081,89.65,4.31,-132.96,89.65,-4.31,132.96,0.35,-0.61,-0.64,0.3,0.15,0.93,-0.01,-7.81,7.57,-5.25,-252.18,-414.67,-670.3,1.15,0.86,-0.02,1013.62,6.96,41,1
00:00:42:197,90.7,3.83,-133.19,90.7,-3.83,133.19,0.35,-0.62,-0.64,0.3,0.08,0.96,-0.16,-6.47,8.24,-5.31,-238.17,-397.1,-680.45,1.08,0.89,-0.15,1013.61,6.95,41,1
00:00:42:312,91.04,2.79,-133.2,91.04,-2.79,133.2,0.34,-0.63,-0.63,0.3,0.06,0.97,0.03,-6.41,7.02,-5.49,-246.92,-416.43,-665.22,1.05,0.92,0.05,1013.61,6.95,43,1
00:00:42:428,91.22,3.16,-133.39,91.22,-3.16,133.39,0.34,-0.63,-0.63,0.3,0.02,1,-0.2,-5.43,7.45,-5.25,-248.68,-411.16,-680.45,1.02,0.94,-0.18,1013.62,6.91,45,1
00:00:42:543,92.55,2.75,-133.55,92.55,-2.75,133.55,0.34,-0.64,-0.62,0.3,0.04,0.95,-0.06,-5.86,7.93,-5.13,-241.67,-411.16,-663.53,1.04,0.9,-0.01,1013.61,6.91,45,1
00:00:42:659,92.35,2.27,-133.7,92.35,-2.27,133.7,0.34,-0.64,-0.62,0.3,0.06,1.04,-0.08,-6.41,6.47,-5.55,-239.92,-419.95,-658.45,1.06,1,-0.03,1013.61,6.93,45,1
00:00:42:775,92.9,2.06,-133.98,92.9,-2.06,133.98,0.34,-0.64,-0.62,0.3,0.13,1.02,-0.04,-8.61,6.16,-5.25,-224.16,-425.22,-673.68,1.12,0.98,0.01,1013.62,6.93,43,1
00:00:42:916,92.6,2.46,-134.2,92.6,-2.46,134.2,0.34,-0.64,-0.62,0.3,0.12,0.98,-0.08,-10.19,6.9,-5.31,-252.18,-411.16,-660.14,1.12,0.93,-0.03,1013.6,7.1,44,1
00:00:43:032,93.14,2.58,-134.58,93.14,-2.58,134.58,0.34,-0.64,-0.62,0.29,0.11,1,0.04,-11.84,7.2,-4.82,-246.92,-426.97,-661.83,1.11,0.96,0.09,1013.61,7.06,42,1
00:00:43:148,90.75,4.12,-134.74,90.75,-4.12,134.74,0.34,-0.63,-0.64,0.29,0.09,0.99,-0.3,-6.47,8.24,-4.82,-236.42,-448.06,-661.83,1.09,0.92,-0.29,1013.62,6.93,42,1
00:00:43:263,90.87,3.97,-135,90.87,-3.97,135,0.34,-0.63,-0.64,0.29,0.09,0.99,-0.17,-4.58,8.24,-5.31,-229.41,-437.52,-658.45,1.09,0.92,-0.16,1013.62,6.88,43,1
00:00:43:379,86.54,4.12,-134.82,86.54,-4.12,134.82,0.33,-0.6,-0.66,0.3,0.11,0.9,0.27,-5.25,5.07,-5.07,-243.42,-434,-648.29,1.11,0.83,0.21,1013.63,6.97,40,1
00:00:43:495,88.51,3.25,-134.68,88.51,-3.25,134.68,0.33,-0.62,-0.65,0.3,0.06,1.09,-0.17,-4.82,3.54,-5,-239.92,-430.49,-655.06,1.06,1.03,-0.2,1013.62,6.83,41,1
00:00:43:611,88.03,3.39,-134.3,88.03,-3.39,134.3,0.33,-0.61,-0.65,0.3,0.16,0.95,0.08,-8.12,1.53,-4.58,-231.16,-432.25,-660.14,1.15,0.89,0.05,1013.61,6.86,35,1
00:00:43:727,88.96,3.6,-134.15,88.96,-3.6,134.15,0.33,-0.62,-0.65,0.3,0.08,0.95,-0.14,-8.06,1.16,-4.76,-245.17,-439.27,-643.21,1.08,0.89,-0.16,1013.61,7.03,39,1
00:00:43:842,88.76,4.57,-133.81,88.76,-4.57,133.81,0.34,-0.61,-0.65,0.3,0.11,1,-0.15,-8.85,3.11,-5.43,-231.16,-453.33,-670.3,1.11,0.92,-0.17,1013.59,7.05,45,1
00:00:43:958,90.36,4.49,-133.51,90.36,-4.49,133.51,0.35,-0.62,-0.64,0.29,0.11,1.05,-0.4,-6.35,2.69,-5.07,-239.92,-434,-658.45,1.11,0.97,-0.39,1013.6,7.07,44,1
00:00:44:073,91.01,4.77,-133.35,91.01,-4.77,133.35,0.35,-0.62,-0.64,0.29,0.14,0.94,0.05,-7.32,2.75,-5.07,-238.17,-442.79,-666.91,1.14,0.85,0.06,1013.62,6.95,45,1
00:00:44:189,92.54,4.21,-133.25,92.54,-4.21,133.25,0.35,-0.63,-0.63,0.29,0.12,0.98,0.05,-6.71,0.55,-5.31,-239.92,-412.92,-665.22,1.12,0.91,0.1,1013.61,6.91,47,1
00:00:44:305,92.99,3.75,-133.1,92.99,-3.75,133.1,0.35,-0.63,-0.62,0.29,0.1,0.97,-0.03,-5.25,2.69,-5.55,-238.17,-435.76,-653.37,1.1,0.9,0.02,1013.62,7.07,43,1
00:00:44:421,91.77,3.82,-133.11,91.77,-3.82,133.11,0.35,-0.63,-0.63,0.3,0.07,1.08,-0.21,-2.69,3.17,-5.37,-248.68,-432.25,-649.99,1.07,1.01,-0.18,1013.6,7.08,45,1
00:00:44:537,91.31,3.24,-133.05,91.31,-3.24,133.05,0.34,-0.63,-0.63,0.3,0.06,1.01,-0.07,-1.77,3.78,-5.25,-241.67,-432.25,-663.53,1.06,0.95,-0.04,1013.62,7.01,42,1
00:00:44:652,91.45,2.5,-132.93,91.45,-2.5,132.93,0.34,-0.63,-0.63,0.31,0.05,0.92,0.15,-4.7,1.89,-5.25,-241.67,-428.73,-660.14,1.05,0.88,0.17,1013.61,7.01,40,1
00:00:44:768,92.21,1.87,-132.78,92.21,-1.87,132.78,0.34,-0.63,-0.62,0.31,0.07,0.98,-0.07,-4.52,2.14,-5.31,-238.17,-425.22,-663.53,1.07,0.95,-0.03,1013.6,7.08,41,1
00:00:44:883,91.86,2.03,-132.62,91.86,-2.03,132.62,0.34,-0.63,-0.62,0.31,0.06,1.06,-0.13,-3.91,2.26,-4.76,-227.66,-425.22,-660.14,1.06,1.02,-0.09,1013.61,7.16,45,1
00:00:44:999,91.68,2.12,-132.58,91.68,-2.12,132.58,0.34,-0.63,-0.62,0.31,0.06,0.99,-0.08,-5.25,1.65,-4.7,-236.42,-426.97,-668.6,1.06,0.96,-0.05,1013.6,7.03,44,1
00:00:45:115,89.33,2.38,-132.41,89.33,-2.38,132.41,0.34,-0.62,-0.64,0.32,0.07,0.99,-0.16,-4.27,2.62,-5.25,-243.42,-437.52,-651.68,1.07,0.95,-0.17,1013.62,6.93,42,1
00:00:45:241,90.08,3.3,-132.34,90.08,-3.3,132.34,0.35,-0.62,-0.64,0.31,0.15,1.03,-0.19,-6.59,2.75,-5,-220.66,-432.25,-660.14,1.15,0.98,-0.19,1013.62,6.93,46,1
00:00:45:357,88.98,3.86,-132.24,88.98,-3.86,132.24,0.35,-0.61,-0.64,0.31,0.15,1.02,-0.17,-7.26,2.2,-4.88,-241.67,-432.25,-673.68,1.15,0.95,-0.19,1013.63,6.85,45,1
00:00:45:472,89.55,3.78,-132.11,89.55,-3.78,132.11,0.35,-0.61,-0.64,0.31,0.1,0.99,-0.05,-7.45,3.54,-5.07,-222.41,-441.03,-665.22,1.1,0.93,-0.06,1013.62,6.97,45,1
00:00:45:604,89.11,3.77,-132.19,89.11,-3.77,132.19,0.35,-0.61,-0.64,0.31,0.12,0.99,0.01,-7.69,3.3,-5.31,-229.41,-423.46,-634.75,1.11,0.93,-0.01,1013.62,6.96,43,1
00:00:45:720,89.36,3.29,-132.27,89.36,-3.29,132.27,0.34,-0.61,-0.64,0.31,0.14,1.01,-0.17,-7.45,3.42,-5.37,-225.91,-434,-668.6,1.13,0.96,-0.19,1013.62,6.97,43,1
00:00:45:836,89.7,2.79,-132.24,89.7,-2.79,132.24,0.34,-0.62,-0.64,0.31,0.07,0.98,-0.07,-8.67,3.42,-5.25,-232.91,-430.49,-675.38,1.07,0.94,-0.07,1013.62,6.94,43,1
00:00:45:951,90.47,2.77,-132.18,90.47,-2.77,132.18,0.34,-0.62,-0.63,0.31,0.06,0.95,0.04,-8.06,3.42,-5.43,-239.92,-416.43,-658.45,1.06,0.9,0.05,1013.61,7.01,41,1
00:00:46:067,91.1,2.49,-132.2,91.1,-2.49,132.2,0.34,-0.63,-0.63,0.31,0.08,0.97,-0.07,-6.77,3.66,-5.25,-227.66,-435.76,-663.53,1.08,0.93,-0.05,1013.59,7.11,41,1
00:00:46:182,92.1,2.38,-132.3,92.1,-2.38,132.3,0.35,-0.63,-0.62,0.31,0.05,1.04,-0.2,-4.88,3.6,-5.43,-225.91,-430.49,-651.68,1.05,1,-0.17,1013.6,7.13,43,1
00:00:46:298,91.33,2.74,-132.46,91.33,-2.74,132.46,0.35,-0.63,-0.63,0.31,0.09,0.96,-0.08,-5.49,3.85,-5.49,-246.92,-441.03,-671.99,1.09,0.91,-0.05,1013.6,7.13,42,1
00:00:46:414,90.62,3.08,-132.49,90.62,-3.08,132.49,0.34,-0.62,-0.63,0.31,0.07,0.99,-0.05,-7.08,2.69,-5.07,-218.91,-437.52,-661.83,1.07,0.94,-0.04,1013.61,6.93,41,1
00:00:46:530,89.93,2.93,-132.52,89.93,-2.93,132.52,0.34,-0.62,-0.64,0.31,0.06,1.04,-0.28,-4.27,3.97,-5.13,-239.92,-430.49,-655.06,1.06,0.99,-0.28,1013.62,6.88,46,1
00:00:46:646,90.77,2.61,-132.56,90.77,-2.61,132.56,0.34,-0.62,-0.63,0.31,0.08,0.98,-0.05,-5.37,3.42,-5.13,-238.17,-439.27,-656.76,1.08,0.94,-0.03,1013.64,6.84,44,1
00:00:46:761,90.9,2.46,-132.57,90.9,-2.46,132.57,0.34,-0.63,-0.63,0.31,0.07,0.98,-0.02,-7.2,2.44,-5.13,-232.91,-430.49,-658.45,1.07,0.94,-0.01,1013.62,7.05,43,1
00:00:46:877,92.23,2.13,-132.59,92.23,-2.13,132.59,0.34,-0.63,-0.62,0.31,0.07,1.01,-0.1,-5.31,3.36,-5,-238.17,-418.19,-663.53,1.07,0.97,-0.06,1013.63,6.86,47,2
00:00:46:992,92.56,2.09,-132.51,92.56,-2.09,132.51,0.34,-0.64,-0.62,0.31,0.09,0.97,0.01,-8,1.83,-5.07,-234.67,-439.27,-666.91,1.09,0.93,0.06,1013.61,7.07,41,2
00:00:47:108,91.12,2.34,-132.5,91.12,-2.34,132.5,0.34,-0.63,-0.63,0.31,0.05,1.01,-0.17,-6.29,2.93,-4.88,-239.92,-441.03,-655.06,1.05,0.97,-0.15,1013.6,7.07,45,2
00:00:47:224,91.83,2.83,-132.5,91.83,-2.83,132.5,0.35,-0.63,-0.63,0.31,0.11,1,-0.1,-5.62,2.56,-5.07,-239.92,-437.52,-668.6,1.11,0.95,-0.07,1013.62,6.86,41,2
00:00:47:340,91.35,3.23,-132.44,91.35,-3.23,132.44,0.35,-0.62,-0.63,0.3,0.11,1,-0.07,-6.47,2.75,-5.13,-248.68,-428.73,-666.91,1.11,0.94,-0.05,1013.62,6.85,43,2
00:00:47:456,91.67,3.04,-132.35,91.67,-3.04,132.35,0.35,-0.63,-0.63,0.31,0.08,1,-0.11,-6.16,3.36,-5.31,-238.17,-414.67,-663.53,1.08,0.95,-0.08,1013.62,6.86,39,2
00:00:47:571,91.81,3.13,-132.24,91.81,-3.13,132.24,0.35,-0.63,-0.63,0.31,0.13,1.01,-0.03,-6.16,2.38,-5.25,-241.67,-435.76,-673.68,1.13,0.95,0.01,1013.61,6.93,41,2
00:00:47:687,91.93,3.19,-132.24,91.93,-3.19,132.24,0.35,-0.63,-0.62,0.3,0.08,1.01,-0.12,-6.35,2.5,-5.25,-224.16,-432.25,-653.37,1.08,0.95,-0.09,1013.62,6.78,45,2
00:00:47:802,92.09,2.83,-132.26,92.09,-2.83,132.26,0.35,-0.63,-0.62,0.31,0.08,1.01,-0.13,-5.8,2.87,-5.37,-227.66,-425.22,-663.53,1.08,0.96,-0.1,1013.62,6.88,41,2
00:00:47:929,92.66,2.59,-132.24,92.66,-2.59,132.24,0.35,-0.63,-0.62,0.31,0.07,0.99,-0.08,-5.74,2.56,-5.31,-231.16,-442.79,-670.3,1.07,0.94,-0.04,1013.62,6.87,42,2
00:00:48:045,92.54,2.67,-132.36,92.54,-2.67,132.36,0.35,-0.63,-0.62,0.3,0.09,1,-0.08,-6.04,2.99,-5.25,-231.16,-432.25,-656.76,1.09,0.95,-0.04,1013.64,6.79,43,2
00:00:48:161,92.27,2.38,-132.49,92.27,-2.38,132.49,0.35,-0.63,-0.62,0.31,0.07,1.03,-0.13,-5.86,3.42,-5.19,-229.41,-426.97,-671.99,1.07,0.99,-0.09,1013.62,7.1,41,2
00:00:48:277,92.56,2.21,-132.53,92.56,-2.21,132.53,0.35,-0.63,-0.62,0.31,0.08,1,-0.1,-5.8,3.05,-5.13,-222.41,-434,-658.45,1.08,0.96,-0.05,1013.61,7.02,44,2
00:00:48:392,92.29,2.27,-132.64,92.29,-2.27,132.64,0.34,-0.63,-0.62,0.31,0.07,1,-0.08,-6.35,3.05,-5.19,-238.17,-425.22,-673.68,1.07,0.96,-0.04,1013.61,7.03,43,2
00:00:48:508,92.74,2.27,-132.62,92.74,-2.27,132.62,0.35,-0.64,-0.62,0.31,0.09,1.02,-0.11,-5.8,3.11,-5.07,-236.42,-419.95,-655.06,1.08,0.98,-0.06,1013.6,7.08,41,2
00:00:48:624,92.87,2.39,-132.63,92.87,-2.39,132.63,0.35,-0.64,-0.62,0.3,0.08,1,-0.08,-6.47,2.93,-5,-215.4,-423.46,-665.22,1.08,0.96,-0.03,1013.58,7.19,41,2
00:00:48:740,92.8,2.47,-132.63,92.8,-2.47,132.63,0.35,-0.64,-0.62,0.3,0.09,1.02,-0.11,-5.86,3.17,-5,-236.42,-409.4,-665.22,1.09,0.97,-0.06,1013.57,7.28,47,2
00:00:48:856,93.3,2.57,-132.58,93.3,-2.57,132.58,0.35,-0.64,-0.62,0.3,0.09,1,-0.13,-5.31,3.36,-5,-236.42,-426.97,-658.45,1.09,0.96,-0.08,1013.59,7.12,43,2
00:00:48:971,93.04,2.75,-132.63,93.04,-2.75,132.63,0.35,-0.64,-0.62,0.3,0.09,1.01,-0.07,-5.86,3.05,-5.07,-232.91,-437.52,-668.6,1.08,0.96,-0.02,1013.6,7.11,41,2
00:00:49:087,93.23,2.7,-132.64,93.23,-2.7,132.64,0.35,-0.64,-0.62,0.3,0.08,1,-0.09,-5.62,2.81,-5.19,-227.66,-418.19,-670.3,1.08,0.95,-0.03,1013.6,7.1,47,2
00:00:49:202,93.36,2.76,-132.58,93.36,-2.76,132.58,0.35,-0.64,-0.62,0.3,0.08,0.97,-0.09,-5.43,3.23,-5.25,-224.16,-432.25,-670.3,1.07,0.92,-0.03,1013.59,7.22,41,2
00:00:49:318,92.83,3.11,-132.57,92.83,-3.11,132.57,0.35,-0.63,-0.62,0.3,0.07,1.01,-0.12,-5.07,3.48,-5.25,-225.91,-419.95,-655.06,1.07,0.95,-0.07,1013.59,7.19,41,2
00:00:49:434,93.31,3.11,-132.56,93.31,-3.11,132.56,0.35,-0.64,-0.62,0.3,0.07,0.97,-0.08,-6.35,3.05,-5.19,-224.16,-435.76,-649.99,1.07,0.92,-0.02,1013.6,7.12,45,2
00:00:49:550,93.54,2.83,-132.71,93.54,-2.83,132.71,0.35,-0.64,-0.62,0.3,0.1,1.01,-0.09,-6.16,2.81,-5.25,-236.42,-441.03,-671.99,1.1,0.96,-0.03,1013.61,7.01,43,2
00:00:49:666,94.13,2.85,-132.78,94.13,-2.85,132.78,0.35,-0.64,-0.61,0.3,0.1,0.99,-0.13,-5.13,3.05,-5.25,-232.91,-441.03,-655.06,1.1,0.94,-0.06,1013.6,7.09,43,2
00:00:49:781,93.96,2.81,-132.94,93.96,-2.81,132.94,0.35,-0.64,-0.61,0.3,0.09,1.03,-0.15,-5.55,3.23,-5.25,-236.42,-430.49,-658.45,1.08,0.99,-0.08,1013.6,6.96,39,2
00:00:49:897,93.7,3.04,-133.01,93.7,-3.04,133.01,0.35,-0.64,-0.62,0.3,0.08,0.99,-0.12,-6.84,3.11,-5.19,-234.67,-439.27,-666.91,1.08,0.94,-0.06,1013.6,7.07,45,2
00:00:50:012,93.37,2.76,-133.08,93.37,-2.76,133.08,0.35,-0.64,-0.62,0.3,0.07,1.01,-0.14,-6.16,3.36,-5.13,-199.64,-425.22,-666.91,1.07,0.96,-0.08,1013.58,7.18,44,2
00:00:50:128,93.35,2.53,-133.06,93.35,-2.53,133.06,0.35,-0.64,-0.62,0.3,0.09,0.98,-0.05,-6.9,2.99,-5.19,-234.67,-439.27,-666.91,1.09,0.94,0.01,1013.59,7.3,44,2
00:00:50:254,93.14,2.39,-133.12,93.14,-2.39,133.12,0.34,-0.64,-0.62,0.3,0.07,1.02,-0.12,-6.41,3.42,-5.07,-231.16,-439.27,-663.53,1.07,0.98,-0.06,1013.58,7.23,45,2
00:00:50:370,93.03,2.39,-133.18,93.03,-2.39,133.18,0.34,-0.64,-0.62,0.3,0.1,0.99,-0.14,-7.26,3.11,-5.07,-220.66,-432.25,-670.3,1.1,0.95,-0.09,1013.6,7.23,41,2
00:00:50:486,93.56,2.44,-133.2,93.56,-2.44,133.2,0.35,-0.64,-0.62,0.3,0.09,0.99,-0.1,-6.59,3.11,-4.94,-227.66,-432.25,-663.53,1.09,0.94,-0.04,1013.61,7.04,42,2
00:00:50:601,93.98,2.48,-133.23,93.98,-2.48,133.23,0.35,-0.64,-0.61,0.3,0.09,0.98,-0.05,-6.65,3.23,-5.19,-222.41,-430.49,-671.99,1.09,0.94,0.02,1013.61,7.04,44,2
00:00:50:723,93.81,2.54,-133.2,93.81,-2.54,133.2,0.35,-0.64,-0.62,0.3,0.09,0.99,-0.12,-6.1,3.23,-5.13,-222.41,-430.49,-671.99,1.09,0.95,-0.05,1013.59,7.07,43,2
00:00:50:839,93.64,2.76,-133.16,93.64,-2.76,133.16,0.35,-0.64,-0.62,0.3,0.1,1,-0.09,-5.43,3.05,-5,-220.66,-425.22,-670.3,1.1,0.96,-0.03,1013.61,7.15,39,2
00:00:50:955,93.49,2.92,-133.14,93.49,-2.92,133.14,0.35,-0.64,-0.62,0.3,0.06,0.95,-0.11,-5.74,3.3,-5.19,-231.16,-449.82,-673.68,1.06,0.9,-0.05,1013.58,7.28,41,2
00:00:51:070,93.32,2.78,-133.21,93.32,-2.78,133.21,0.35,-0.64,-0.62,0.3,0.11,0.99,-0.11,-5.49,3.17,-5.13,-241.67,-428.73,-670.3,1.1,0.94,-0.05,1013.57,7.3,43,2
00:00:51:186,93.28,2.93,-133.13,93.28,-2.93,133.13,0.35,-0.64,-0.62,0.3,0.1,1.02,-0.1,-4.76,2.87,-5.13,-225.91,-434,-678.76,1.1,0.97,-0.04,1013.57,7.32,43,2
00:00:51:301,93.75,2.81,-133.02,93.75,-2.81,133.02,0.35,-0.64,-0.62,0.3,0.11,0.99,-0.02,-5.62,2.69,-5.13,-222.41,-419.95,-671.99,1.11,0.94,0.04,1013.57,7.24,43,2
00:00:51:417,93.97,2.67,-132.9,93.97,-2.67,132.9,0.35,-0.64,-0.61,0.3,0.06,0.97,-0.06,-5.74,2.99,-5.31,-231.16,-432.25,-680.45,1.06,0.92,0.01,1013.55,7.4,45,2
00:00:51:532,94.09,2.75,-132.83,94.09,-2.75,132.83,0.35,-0.64,-0.61,0.3,0.1,0.98,-0.1,-6.41,2.69,-5.25,-224.16,-425.22,-683.84,1.09,0.93,-0.03,1013.56,7.48,45,2
00:00:51:648,93.81,2.98,-132.75,93.81,-2.98,132.75,0.35,-0.64,-0.62,0.3,0.07,0.99,-0.12,-6.29,2.99,-5.19,-218.91,-441.03,-682.15,1.07,0.93,-0.06,1013.54,7.65,40,2
00:00:51:764,93.35,3.04,-132.74,93.35,-3.04,132.74,0.35,-0.64,-0.62,0.3,0.08,0.99,-0.17,-6.23,2.69,-5.25,-225.91,-444.55,-685.53,1.08,0.94,-0.12,1013.55,7.52,47,2
00:00:51:880,94.31,2.97,-132.76,94.31,-2.97,132.76,0.35,-0.64,-0.61,0.3,0.09,0.87,-0.14,-6.59,3.05,-5.25,-213.65,-439.27,-687.22,1.09,0.82,-0.06,1013.54,7.52,43,2
00:00:51:996,94.77,3.22,-132.79,94.77,-3.22,132.79,0.36,-0.64,-0.61,0.29,0.1,0.9,-0.13,-6.59,3.23,-5.25,-227.66,-428.73,-663.53,1.09,0.85,-0.04,1013.53,7.63,44,2
00:00:52:111,92.93,3.02,-132.77,92.93,-3.02,132.77,0.35,-0.64,-0.62,0.3,0.07,1.09,-0.18,-10.8,3.17,-5.31,-220.66,-432.25,-677.07,1.07,1.03,-0.13,1013.54,7.59,43,2
00:00:52:227,92.34,2.59,-132.72,92.34,-2.59,132.72,0.35,-0.63,-0.62,0.3,0.02,1.04,-0.16,-10.07,3.36,-4.94,-238.17,-453.33,-680.45,1.02,0.99,-0.11,1013.56,7.44,45,2
00:00:52:342,91.51,3.05,-132.66,91.51,-3.05,132.66,0.35,-0.63,-0.63,0.3,-0.01,0.92,-0.19,-9.34,3.17,-5.31,-236.42,-416.43,-678.76,0.99,0.86,-0.17,1013.55,7.58,51,2
00:00:52:458,92.97,3.4,-132.56,92.97,-3.4,132.56,0.35,-0.63,-0.62,0.3,0.2,0.99,0.03,-8.36,1.4,-5.43,-229.41,-430.49,-665.22,1.19,0.93,0.08,1013.53,7.7,41,2
00:00:52:574,92.75,4.15,-132.43,92.75,-4.15,132.43,0.36,-0.63,-0.62,0.3,0.13,0.98,0.02,-8.91,2.87,-5.13,-236.42,-423.46,-682.15,1.13,0.91,0.06,1013.51,7.84,46,2
00:00:52:690,93.97,3.76,-132.52,93.97,-3.76,132.52,0.36,-0.64,-0.62,0.29,0.12,0.94,0.04,-8.73,3.42,-5.19,-236.42,-455.09,-668.6,1.12,0.87,0.11,1013.5,7.94,41,2
00:00:52:806,91.33,3.8,-132.83,91.33,-3.8,132.83,0.35,-0.62,-0.63,0.3,0.11,0.93,-0.17,-5.86,4.52,-5.07,-241.67,-435.76,-677.07,1.1,0.86,-0.14,1013.51,7.86,43,2
00:00:52:921,91.86,2.96,-132.84,91.86,-2.96,132.84,0.35,-0.63,-0.63,0.3,0.06,0.98,-0.19,-3.85,4.09,-5.25,-239.92,-444.55,-658.45,1.06,0.93,-0.16,1013.52,7.73,43,2
00:00:53:047,92.83,2.64,-132.93,92.83,-2.64,132.93,0.35,-0.64,-0.62,0.3,0.1,1.05,-0.13,-5.62,2.62,-5.49,-232.91,-437.52,-682.15,1.1,1,-0.08,1013.51,7.71,45,2
00:00:53:163,92.44,2.72,-132.93,92.44,-2.72,132.93,0.35,-0.63,-0.62,0.3,0.12,0.96,-0.04,-7.14,3.3,-5,-236.42,-434,-658.45,1.12,0.92,0,1013.54,7.65,45,2
00:00:53:279,92.59,2.23,-132.97,92.59,-2.23,132.97,0.34,-0.64,-0.62,0.3,0.07,1.01,-0.23,-6.53,3.3,-5.31,-232.91,-419.95,-655.06,1.06,0.97,-0.18,1013.53,7.65,43,2
00:00:53:395,93.38,2.13,-132.97,93.38,-2.13,132.97,0.34,-0.64,-0.62,0.3,0.11,1.03,-0.11,-5.43,4.03,-5.13,-232.91,-430.49,-665.22,1.11,0.99,-0.06,1013.54,7.55,42,2
00:00:53:510,93.13,2.13,-133.04,93.13,-2.13,133.04,0.34,-0.64,-0.62,0.3,0.07,0.97,-0.04,-6.65,3.48,-5.25,-236.42,-434,-671.99,1.07,0.94,0.02,1013.54,7.47,42,2
00:00:53:626,93.38,2.14,-133.09,93.38,-2.14,133.09,0.34,-0.64,-0.62,0.3,0.09,1,-0.14,-5.55,3.42,-5.31,-231.16,-442.79,-673.68,1.09,0.96,-0.08,1013.54,7.6,45,2
00:00:53:741,92.86,2.47,-133.1,92.86,-2.47,133.1,0.34,-0.64,-0.62,0.3,0.1,0.99,-0.03,-6.53,2.56,-4.94,-231.16,-439.27,-677.07,1.1,0.94,0.02,1013.53,7.71,41,2
00:00:53:857,90.9,2.59,-133,90.9,-2.59,133,0.34,-0.63,-0.63,0.31,0.1,1.01,-0.07,-7.08,2.5,-5.19,-222.41,-434,-668.6,1.1,0.96,-0.06,1013.54,7.72,44,2
00:00:53:973,91.46,2.47,-132.87,91.46,-2.47,132.87,0.34,-0.63,-0.63,0.31,0.07,1.03,-0.2,-5.86,3.36,-5.07,-229.41,-426.97,-668.6,1.07,0.98,-0.18,1013.54,7.58,41,2
00:00:54:089,92.3,2.34,-132.84,92.3,-2.34,132.84,0.34,-0.63,-0.62,0.3,0.07,0.95,-0.14,-7.32,3.66,-5.19,-236.42,-437.52,-661.83,1.07,0.91,-0.1,1013.52,7.58,43,2
00:00:54:205,92.46,2.62,-132.89,92.46,-2.62,132.89,0.35,-0.63,-0.62,0.3,0.08,0.99,-0.12,-7.69,2.87,-5,-232.91,-444.55,-665.22,1.08,0.95,-0.07,1013.53,7.64,44,2
00:00:54:320,93.12,2.51,-132.96,93.12,-2.51,132.96,0.35,-0.64,-0.62,0.3,0.09,0.99,-0.19,-6.9,2.5,-5.07,-245.17,-446.3,-687.22,1.08,0.95,-0.14,1013.54,7.51,43,2
00:00:54:436,93.69,2.36,-132.98,93.69,-2.36,132.98,0.35,-0.64,-0.61,0.3,0.09,0.98,-0.13,-6.04,2.81,-5.31,-232.91,-434,-668.6,1.09,0.94,-0.07,1013.54,7.53,45,2
00:00:54:551,94.03,2.44,-133,94.03,-2.44,133,0.35,-0.64,-0.61,0.3,0.1,1,-0.11,-5.37,2.5,-5.25,-236.42,-448.06,-668.6,1.1,0.95,-0.04,1013.54,7.42,41,2
00:00:54:667,94.19,2.43,-133.1,94.19,-2.43,133.1,0.35,-0.64,-0.61,0.3,0.09,1.02,-0.05,-5.13,3.3,-5.07,-234.67,-446.3,-670.3,1.08,0.97,0.03,1013.57,7.5,43,2
00:00:54:783,94.17,2.53,-133.17,94.17,-2.53,133.17,0.35,-0.64,-0.61,0.3,0.09,1,-0.03,-6.41,2.93,-5.13,-234.67,-432.25,-663.53,1.09,0.95,0.04,1013.55,7.52,41,2
00:00:54:899,93.52,2.62,-133.14,93.52,-2.62,133.14,0.35,-0.64,-0.62,0.3,0.09,0.99,-0.05,-6.47,2.5,-5.25,-234.67,-425.22,-680.45,1.09,0.94,0.01,1013.55,7.59,43,2
00:00:55:015,92.46,2.72,-132.97,92.46,-2.72,132.97,0.35,-0.63,-0.62,0.3,0.09,1.01,-0.14,-7.2,2.75,-5.25,-241.67,-428.73,-666.91,1.09,0.97,-0.09,1013.55,7.54,43,2
00:00:55:130,92.18,2.81,-132.88,92.18,-2.81,132.88,0.35,-0.63,-0.62,0.3,0.09,1.02,-0.15,-6.71,3.17,-5,-246.92,-430.49,-675.38,1.09,0.97,-0.11,1013.54,7.7,44,2
00:00:55:246,92.39,2.64,-132.76,92.39,-2.64,132.76,0.35,-0.63,-0.62,0.3,0.08,0.96,-0.13,-6.65,2.75,-5.19,-241.67,-432.25,-666.91,1.08,0.92,-0.09,1013.51,7.89,41,2
00:00:55:372,92.47,2.71,-132.71,92.47,-2.71,132.71,0.35,-0.63,-0.62,0.3,0.1,1,-0.15,-6.23,2.75,-5.31,-238.17,-435.76,-673.68,1.1,0.95,-0.11,1013.51,7.79,44,2
00:00:55:488,92.56,3.01,-132.69,92.56,-3.01,132.69,0.35,-0.63,-0.62,0.3,0.09,0.99,-0.08,-6.71,3.11,-5.19,-253.93,-426.97,-671.99,1.09,0.94,-0.04,1013.51,7.84,43,2
00:00:55:604,92.86,2.9,-132.69,92.86,-2.9,132.69,0.35,-0.63,-0.62,0.3,0.09,0.98,-0.06,-5.92,3.54,-5.25,-224.16,-442.79,-680.45,1.09,0.93,-0.01,1013.51,7.83,42,2
00:00:55:748,93.44,2.68,-132.8,93.44,-2.68,132.8,0.35,-0.64,-0.62,0.3,0.08,1.01,-0.13,-6.35,3.48,-5.31,-224.16,-442.79,-680.45,1.08,0.96,-0.07,1013.51,7.81,44,2
00:00:55:864,93.47,2.66,-132.87,93.47,-2.66,132.87,0.35,-0.64,-0.62,0.3,0.1,1,-0.05,-6.65,3.23,-5.19,-236.42,-437.52,-675.38,1.09,0.95,0.01,1013.51,7.8,43,2
00:00:55:979,93.09,2.73,-132.88,93.09,-2.73,132.88,0.35,-0.64,-0.62,0.3,0.07,1.01,-0.14,-6.23,3.36,-5.13,-225.91,-434,-665.22,1.07,0.96,-0.08,1013.53,7.78,43,2
00:00:56:095,93.23,2.65,-132.93,93.23,-2.65,132.93,0.35,-0.64,-0.62,0.3,0.08,0.98,-0.11,-6.71,3.11,-5.19,-229.41,-426.97,-661.83,1.08,0.93,-0.05,1013.52,7.59,43,2
00:00:56:210,92.9,2.74,-132.93,92.9,-2.74,132.93,0.35,-0.64,-0.62,0.3,0.1,1,-0.09,-6.77,2.99,-5.31,-238.17,-446.3,-663.53,1.09,0.95,-0.04,1013.52,7.81,43,2
00:00:56:326,93.13,2.71,-133.01,93.13,-2.71,133.01,0.35,-0.64,-0.62,0.3,0.08,1,-0.12,-6.29,3.11,-5.13,-241.67,-428.73,-680.45,1.08,0.95,-0.07,1013.51,7.79,43,2
00:00:56:441,93.35,2.59,-132.97,93.35,-2.59,132.97,0.35,-0.64,-0.62,0.3,0.09,0.97,-0.06,-6.47,3.11,-5.13,-239.92,-444.55,-658.45,1.09,0.93,0,1013.52,7.75,43,2
00:00:56:557,93.32,2.69,-133.07,93.32,-2.69,133.07,0.35,-0.64,-0.62,0.3,0.1,1,-0.08,-6.47,3.11,-5.37,-236.42,-430.49,-675.38,1.1,0.95,-0.03,1013.51,7.8,43,2
00:00:56:673,93.35,2.72,-133.01,93.35,-2.72,133.01,0.35,-0.64,-0.62,0.3,0.09,0.99,-0.08,-6.53,3.11,-5.13,-224.16,-439.27,-683.84,1.09,0.95,-0.02,1013.54,7.61,42,2
00:00:56:789,92.73,2.89,-132.93,92.73,-2.89,132.93,0.35,-0.64,-0.62,0.3,0.09,1,-0.12,-6.16,3.23,-5.19,-232.91,-423.46,-671.99,1.09,0.95,-0.07,1013.53,7.62,43,2
00:00:56:905,92.69,2.81,-132.85,92.69,-2.81,132.85,0.35,-0.63,-0.62,0.3,0.08,1,-0.13,-6.16,2.99,-5.31,-222.41,-430.49,-658.45,1.08,0.95,-0.08,1013.52,7.76,44,2
00:00:57:020,92.65,2.8,-132.87,92.65,-2.8,132.87,0.35,-0.63,-0.62,0.3,0.08,1,-0.11,-6.53,3.11,-5.37,-236.42,-437.52,-668.6,1.08,0.95,-0.06,1013.51,7.84,42,2
00:00:57:136,92.8,2.75,-132.86,92.8,-2.75,132.86,0.35,-0.64,-0.62,0.3,0.09,1,-0.09,-6.65,2.87,-5.13,-238.17,-435.76,-673.68,1.09,0.95,-0.05,1013.52,7.76,43,2
00:00:57:252,92.9,2.61,-132.87,92.9,-2.61,132.87,0.35,-0.64,-0.62,0.3,0.08,0.98,-0.09,-6.59,2.75,-5.25,-246.92,-448.06,-665.22,1.08,0.94,-0.04,1013.5,7.84,41,2
00:00:57:368,92.83,2.62,-132.93,92.83,-2.62,132.93,0.35,-0.64,-0.62,0.3,0.08,0.99,-0.11,-6.77,2.87,-5.13,-231.16,-428.73,-677.07,1.08,0.94,-0.06,1013.51,7.77,43,2
00:00:57:484,92.75,2.68,-132.84,92.75,-2.68,132.84,0.35,-0.64,-0.62,0.3,0.08,1,-0.1,-6.41,3.05,-5.25,-243.42,-437.52,-665.22,1.08,0.95,-0.06,1013.52,7.81,43,2
00:00:57:599,92.71,2.81,-132.86,92.71,-2.81,132.86,0.35,-0.63,-0.62,0.3,0.09,0.98,-0.09,-6.53,2.81,-5.07,-238.17,-446.3,-677.07,1.08,0.93,-0.04,1013.5,7.96,42,2
00:00:57:715,92.96,2.73,-132.86,92.96,-2.73,132.86,0.35,-0.64,-0.62,0.3,0.09,0.99,-0.1,-6.35,2.87,-5.19,-236.42,-430.49,-675.38,1.08,0.94,-0.05,1013.5,7.89,43,2
00:00:57:830,93.09,2.63,-132.8,93.09,-2.63,132.8,0.35,-0.64,-0.62,0.3,0.09,1,-0.08,-6.53,2.87,-5.13,-222.41,-426.97,-675.38,1.09,0.95,-0.03,1013.51,7.86,44,2
00:00:57:946,93.21,2.61,-132.73,93.21,-2.61,132.73,0.35,-0.64,-0.62,0.3,0.07,1,-0.11,-6.47,2.99,-5.13,-232.91,-426.97,-668.6,1.07,0.95,-0.05,1013.51,7.92,41,2
00:00:58:114,93.15,2.61,-132.69,93.15,-2.61,132.69,0.35,-0.64,-0.62,0.3,0.09,0.98,-0.07,-6.9,2.62,-5.07,-243.42,-434,-658.45,1.08,0.94,-0.02,1013.5,7.85,45,2
00:00:58:229,93.09,2.68,-132.75,93.09,-2.68,132.75,0.35,-0.64,-0.62,0.3,0.09,0.99,-0.11,-6.71,2.81,-5.19,-239.92,-434,-671.99,1.09,0.95,-0.06,1013.51,7.95,43,2
00:00:58:345,93.17,2.79,-132.75,93.17,-2.79,132.75,0.35,-0.64,-0.62,0.3,0.09,1,-0.09,-6.47,2.62,-5.19,-232.91,-430.49,-665.22,1.09,0.95,-0.03,1013.5,7.98,43,2
00:00:58:460,93.37,2.81,-132.74,93.37,-2.81,132.74,0.35,-0.64,-0.62,0.3,0.08,0.99,-0.1,-6.35,2.99,-5.13,-245.17,-435.76,-653.37,1.08,0.94,-0.04,1013.5,8.01,43,2
00:00:58:576,93.47,2.71,-132.85,93.47,-2.71,132.85,0.35,-0.64,-0.62,0.3,0.09,0.98,-0.07,-6.59,2.62,-5.31,-239.92,-444.55,-651.68,1.08,0.94,-0.01,1013.5,7.94,45,2
00:00:58:692,93.6,2.7,-132.96,93.6,-2.7,132.96,0.35,-0.64,-0.62,0.3,0.1,1,-0.08,-6.47,2.62,-5.13,-232.91,-448.06,-668.6,1.09,0.95,-0.02,1013.48,8.11,42,2
00:00:58:808,93.73,2.83,-133.01,93.73,-2.83,133.01,0.35,-0.64,-0.62,0.3,0.08,1,-0.12,-6.41,2.93,-5.19,-222.41,-430.49,-675.38,1.08,0.95,-0.06,1013.48,8.02,45,2
00:00:58:924,93.61,2.91,-132.95,93.61,-2.91,132.95,0.35,-0.64,-0.62,0.3,0.1,0.99,-0.09,-6.53,2.99,-5.19,-238.17,-425.22,-673.68,1.1,0.93,-0.03,1013.49,7.99,45,2
00:00:59:039,93.45,2.77,-132.88,93.45,-2.77,132.88,0.35,-0.64,-0.62,0.3,0.08,1,-0.1,-6.29,3.17,-5.25,-239.92,-434,-665.22,1.08,0.95,-0.04,1013.48,8.13,42,2
00:00:59:155,93.34,2.78,-132.9,93.34,-2.78,132.9,0.35,-0.64,-0.62,0.3,0.09,0.98,-0.05,-6.71,3.05,-5.19,-229.41,-437.52,-682.15,1.09,0.93,0.01,1013.49,8.03,43,2
00:00:59:270,93.09,2.74,-132.87,93.09,-2.74,132.87,0.35,-0.64,-0.62,0.3,0.08,0.99,-0.08,-6.35,3.3,-5.13,-245.17,-432.25,-673.68,1.07,0.94,-0.03,1013.48,8,43,2
00:00:59:386,93.18,2.74,-132.85,93.18,-2.74,132.85,0.35,-0.64,-0.62,0.3,0.08,0.99,-0.09,-6.53,3.17,-5.25,-232.91,-430.49,-665.22,1.08,0.94,-0.03,1013.5,7.92,43,2
00:00:59:502,92.77,2.81,-132.84,92.77,-2.81,132.84,0.35,-0.64,-0.62,0.3,0.09,1,-0.11,-6.41,3.17,-5.25,-231.16,-442.79,-663.53,1.08,0.95,-0.06,1013.5,7.98,42,2
00:00:59:618,92.48,2.84,-132.87,92.48,-2.84,132.87,0.35,-0.63,-0.62,0.3,0.09,1,-0.13,-6.04,3.23,-5.13,-246.92,-430.49,-668.6,1.09,0.95,-0.08,1013.49,7.99,43,2
00:00:59:734,92.36,2.78,-132.79,92.36,-2.78,132.79,0.35,-0.63,-0.62,0.3,0.09,0.99,-0.09,-6.53,2.87,-5.07,-238.17,-432.25,-687.22,1.09,0.94,-0.05,1013.49,7.97,43,2
00:00:59:849,92.4,2.72,-132.68,92.4,-2.72,132.68,0.35,-0.63,-0.62,0.3,0.08,0.99,-0.11,-6.53,2.99,-5.25,-231.16,-421.7,-663.53,1.08,0.94,-0.07,1013.49,8.09,43,2
00:00:59:965,92.71,2.7,-132.63,92.71,-2.7,132.63,0.35,-0.63,-0.62,0.3,0.1,1,-0.1,-6.23,2.93,-5.25,-243.42,-419.95,-665.22,1.1,0.95,-0.06,1013.49,8.1,43,2
00:01:00:080,92.72,2.63,-132.57,92.72,-2.63,132.57,0.35,-0.63,-0.62,0.3,0.09,0.99,-0.09,-6.84,2.75,-5.25,-234.67,-435.76,-677.07,1.09,0.94,-0.05,1013.47,8.14,41,2
00:01:00:196,92.98,2.54,-132.56,92.98,-2.54,132.56,0.35,-0.64,-0.62,0.3,0.09,1,-0.12,-6.29,2.93,-5.19,-239.92,-426.97,-668.6,1.09,0.95,-0.07,1013.48,8.12,44,2
00:01:00:312,92.88,2.56,-132.55,92.88,-2.56,132.55,0.35,-0.64,-0.62,0.3,0.09,0.99,-0.1,-6.47,2.81,-5.25,-243.42,-434,-678.76,1.09,0.95,-0.05,1013.49,7.98,42,2
00:01:00:453,92.8,2.8,-132.56,92.8,-2.8,132.56,0.35,-0.63,-0.62,0.3,0.09,1,-0.11,-6.65,2.81,-5.13,-248.68,-446.3,-660.14,1.08,0.95,-0.06,1013.49,8.03,43,2
00:01:00:569,92.98,2.78,-132.7,92.98,-2.78,132.7,0.35,-0.64,-0.62,0.3,0.08,0.98,-0.09,-6.47,3.11,-5.19,-246.92,-430.49,-675.38,1.08,0.93,-0.04,1013.49,8.04,45,2
00:01:00:685,93.12,2.71,-132.68,93.12,-2.71,132.68,0.35,-0.64,-0.62,0.3,0.09,0.99,-0.08,-6.59,2.93,-5.31,-232.91,-437.52,-671.99,1.08,0.94,-0.03,1013.51,7.82,42,2
00:01:00:829,92.76,2.75,-132.73,92.76,-2.75,132.73,0.35,-0.63,-0.62,0.3,0.09,0.99,-0.08,-6.47,2.99,-5.13,-232.91,-437.52,-671.99,1.09,0.94,-0.03,1013.5,7.89,42,2
00:01:00:945,93.03,2.68,-132.75,93.03,-2.68,132.75,0.35,-0.64,-0.62,0.3,0.08,0.99,-0.1,-6.41,3.17,-5.19,-224.16,-442.79,-677.07,1.07,0.95,-0.04,1013.53,7.74,43,2
00:01:01:061,93.09,2.72,-132.77,93.09,-2.72,132.77,0.35,-0.64,-0.62,0.3,0.09,0.98,-0.07,-6.59,2.99,-5.25,-241.67,-432.25,-666.91,1.09,0.94,-0.02,1013.51,7.77,42,2
00:01:01:177,92.87,2.76,-132.77,92.87,-2.76,132.77,0.35,-0.64,-0.62,0.3,0.09,1,-0.12,-6.29,2.87,-5.13,-239.92,-448.06,-661.83,1.09,0.95,-0.07,1013.52,7.87,43,2
00:01:01:293,93.05,2.76,-132.85,93.05,-2.76,132.85,0.35,-0.64,-0.62,0.3,0.08,0.99,-0.1,-6.35,3.17,-5.19,-231.16,-425.22,-677.07,1.08,0.94,-0.04,1013.52,7.81,43,2
00:01:01:408,92.89,2.68,-132.74,92.89,-2.68,132.74,0.35,-0.64,-0.62,0.3,0.08,0.98,-0.09,-6.71,2.99,-5.07,-245.17,-439.27,-680.45,1.08,0.94,-0.04,1013.49,7.97,43,2
00:01:01:524,93.19,2.63,-132.76,93.19,-2.63,132.76,0.35,-0.64,-0.62,0.3,0.09,0.99,-0.08,-6.35,3.11,-5.25,-234.67,-442.79,-677.07,1.09,0.94,-0.02,1013.5,7.87,43,2
00:01:01:639,92.92,2.78,-132.79,92.92,-2.78,132.79,0.35,-0.64,-0.62,0.3,0.1,0.99,-0.09,-6.65,2.81,-5.25,-227.66,-442.79,-677.07,1.1,0.94,-0.03,1013.51,7.82,43,2
00:01:01:755,92.79,2.73,-132.79,92.79,-2.73,132.79,0.35,-0.64,-0.62,0.3,0.09,0.99,-0.09,-6.35,2.99,-5.19,-234.67,-435.76,-683.84,1.08,0.94,-0.04,1013.5,7.97,41,2
00:01:01:871,92.66,2.77,-132.72,92.66,-2.77,132.72,0.35,-0.63,-0.62,0.3,0.09,0.99,-0.1,-6.47,3.05,-5.19,-236.42,-434,-678.76,1.08,0.94,-0.05,1013.5,7.96,42,2
00:01:01:987,92.65,2.84,-132.68,92.65,-2.84,132.68,0.35,-0.63,-0.62,0.3,0.09,1,-0.11,-6.23,3.05,-5.13,-241.67,-442.79,-670.3,1.09,0.95,-0.07,1013.49,7.97,43,2
00:01:02:103,92.77,2.85,-132.72,92.77,-2.85,132.72,0.35,-0.63,-0.62,0.3,0.09,0.99,-0.12,-6.47,3.05,-5.19,-229.41,-441.03,-682.15,1.09,0.94,-0.07,1013.49,8.05,42,2
00:01:02:218,92.97,2.71,-132.71,92.97,-2.71,132.71,0.35,-0.64,-0.62,0.3,0.09,0.99,-0.1,-6.65,2.93,-5.13,-236.42,-412.92,-678.76,1.09,0.94,-0.05,1013.5,7.92,43,2
00:01:02:334,92.89,2.67,-132.58,92.89,-2.67,132.58,0.35,-0.64,-0.62,0.3,0.09,0.99,-0.1,-6.41,3.05,-5.31,-238.17,-439.27,-680.45,1.09,0.95,-0.05,1013.5,7.94,43,2
00:01:02:449,92.96,2.7,-132.59,92.96,-2.7,132.59,0.35,-0.64,-0.62,0.3,0.1,0.99,-0.11,-6.53,2.87,-5.13,-239.92,-426.97,-675.38,1.1,0.95,-0.06,1013.51,7.86,43,2
00:01:02:565,93.05,2.67,-132.54,93.05,-2.67,132.54,0.35,-0.64,-0.62,0.3,0.08,0.99,-0.11,-6.53,2.87,-5.19,-243.42,-430.49,-685.53,1.08,0.94,-0.05,1013.51,7.86,44,2
00:01:02:681,93.26,2.58,-132.52,93.26,-2.58,132.52,0.35,-0.64,-0.62,0.3,0.08,0.99,-0.12,-6.35,3.17,-5.13,-227.66,-432.25,-683.84,1.08,0.95,-0.06,1013.51,7.79,43,2
00:01:02:797,93.18,2.58,-132.5,93.18,-2.58,132.5,0.35,-0.64,-0.62,0.3,0.09,0.99,-0.08,-6.77,3.05,-5.19,-222.41,-441.03,-675.38,1.08,0.95,-0.03,1013.52,7.82,41,2
00:01:02:913,93.21,2.54,-132.57,93.21,-2.54,132.57,0.35,-0.64,-0.62,0.3,0.08,0.99,-0.09,-6.53,3.11,-5.19,-231.16,-432.25,-677.07,1.08,0.95,-0.04,1013.51,7.83,43,2
00:01:03:028,93.32,2.62,-132.57,93.32,-2.62,132.57,0.35,-0.64,-0.62,0.3,0.09,0.98,-0.06,-6.71,2.93,-5.19,-245.17,-432.25,-666.91,1.09,0.94,0,1013.5,7.98,43,2
00:01:03:154,93.27,2.69,-132.6,93.27,-2.69,132.6,0.35,-0.64,-0.62,0.3,0.09,0.99,-0.08,-6.47,3.05,-5.19,-250.43,-434,-688.92,1.09,0.94,-0.02,1013.51,7.77,43,2
00:01:03:269,93,2.79,-132.52,93,-2.79,132.52,0.35,-0.64,-0.62,0.3,0.09,1,-0.1,-6.41,2.99,-5.25,-236.42,-419.95,-688.92,1.09,0.95,-0.05,1013.52,7.81,41,2
00:01:03:385,93.13,2.76,-132.4,93.13,-2.76,132.4,0.35,-0.64,-0.62,0.3,0.09,0.99,-0.1,-6.35,3.05,-5.13,-222.41,-430.49,-661.83,1.08,0.95,-0.04,1013.53,7.69,43,2
00:01:03:501,92.97,2.78,-132.46,92.97,-2.78,132.46,0.35,-0.64,-0.62,0.3,0.09,0.99,-0.08,-6.59,2.93,-5.19,-238.17,-435.76,-670.3,1.08,0.94,-0.03,1013.52,7.83,41,2
00:01:03:617,92.88,2.77,-132.51,92.88,-2.77,132.51,0.35,-0.63,-0.62,0.3,0.09,1,-0.12,-6.29,2.99,-5.19,-234.67,-442.79,-666.91,1.09,0.95,-0.07,1013.5,7.84,43,2
00:01:03:733,93.01,2.84,-132.59,93.01,-2.84,132.59,0.35,-0.64,-0.62,0.3,0.1,0.99,-0.09,-6.41,3.05,-5.13,-239.92,-423.46,-665.22,1.09,0.94,-0.04,1013.51,7.86,43,2
00:01:03:848,92.9,2.83,-132.56,92.9,-2.83,132.56,0.35,-0.63,-0.62,0.3,0.09,0.99,-0.1,-6.59,2.87,-5.13,-231.16,-432.25,-666.91,1.08,0.94,-0.05,1013.51,7.74,45,2
00:01:03:964,93.2,2.64,-132.58,93.2,-2.64,132.58,0.35,-0.64,-0.62,0.3,0.09,0.99,-0.12,-6.35,2.99,-5.13,-227.66,-425.22,-670.3,1.09,0.95,-0.07,1013.5,7.84,44,2
00:01:04:080,92.93,2.66,-132.57,92.93,-2.66,132.57,0.35,-0.64,-0.62,0.3,0.09,1,-0.13,-6.47,2.93,-5.19,-243.42,-434,-665.22,1.09,0.96,-0.07,1013.52,7.76,42,2
00:01:04:196,93.08,2.64,-132.64,93.08,-2.64,132.64,0.35,-0.64,-0.62,0.3,0.08,0.99,-0.1,-6.41,3.05,-5.13,-232.91,-426.97,-682.15,1.08,0.94,-0.04,1013.52,7.84,44,2
00:01:04:312,93.16,2.54,-132.59,93.16,-2.54,132.59,0.35,-0.64,-0.62,0.3,0.09,0.98,-0.08,-6.65,2.99,-5.19,-238.17,-432.25,-673.68,1.08,0.94,-0.02,1013.5,7.94,43,2
00:01:04:427,93.14,2.59,-132.59,93.14,-2.59,132.59,0.35,-0.64,-0.62,0.3,0.08,0.99,-0.08,-6.59,2.99,-5.13,-234.67,-432.25,-673.68,1.08,0.95,-0.03,1013.52,7.73,43,2
00:01:04:543,93.28,2.65,-132.61,93.28,-2.65,132.61,0.35,-0.64,-0.62,0.3,0.09,1,-0.11,-6.16,3.23,-5.13,-239.92,-437.52,-665.22,1.09,0.95,-0.05,1013.52,7.87,42,2
00:01:04:658,93.16,2.67,-132.7,93.16,-2.67,132.7,0.35,-0.64,-0.62,0.3,0.08,0.99,-0.1,-6.59,3.11,-5.19,-236.42,-437.52,-675.38,1.08,0.95,-0.05,1013.51,7.85,42,2
00:01:04:774,93.29,2.7,-132.71,93.29,-2.7,132.71,0.35,-0.64,-0.62,0.3,0.09,1,-0.09,-6.29,3.17,-5.07,-231.16,-428.73,-666.91,1.09,0.95,-0.03,1013.51,7.77,43,2
00:01:04:890,93.27,2.68,-132.7,93.27,-2.68,132.7,0.35,-0.64,-0.62,0.3,0.1,1,-0.1,-6.59,2.81,-5.13,-238.17,-432.25,-663.53,1.1,0.95,-0.04,1013.51,7.81,43,2
00:01:05:006,93.37,2.6,-132.74,93.37,-2.6,132.74,0.35,-0.64,-0.62,0.3,0.09,0.99,-0.07,-6.59,2.99,-5.19,-224.16,-432.25,-673.68,1.09,0.94,-0.02,1013.51,7.78,44,2
00:01:05:122,93.3,2.58,-132.73,93.3,-2.58,132.73,0.35,-0.64,-0.62,0.3,0.08,0.99,-0.09,-6.41,3.17,-5.19,-246.92,-430.49,-671.99,1.08,0.95,-0.03,1013.52,7.76,44,2
00:01:05:237,93.16,2.68,-132.72,93.16,-2.68,132.72,0.35,-0.64,-0.62,0.3,0.08,0.99,-0.09,-6.41,3.11,-5.31,-238.17,-442.79,-680.45,1.08,0.94,-0.03,1013.51,7.8,43,2
00:01:05:353,93.04,2.7,-132.75,93.04,-2.7,132.75,0.35,-0.64,-0.62,0.3,0.1,0.99,-0.09,-6.29,3.11,-5.19,-241.67,-428.73,-666.91,1.09,0.95,-0.04,1013.5,7.98,43,2
00:01:05:480,93.31,2.64,-132.75,93.31,-2.64,132.75,0.35,-0.64,-0.62,0.3,0.09,0.99,-0.09,-6.65,2.93,-5.13,-238.17,-428.73,-673.68,1.08,0.94,-0.03,1013.5,7.98,43,2
00:01:05:596,93.27,2.65,-132.73,93.27,-2.65,132.73,0.35,-0.64,-0.62,0.3,0.09,0.98,-0.08,-6.65,2.87,-5.25,-220.66,-432.25,-677.07,1.09,0.94,-0.03,1013.51,7.79,43,2
00:01:05:712,93.15,2.66,-132.69,93.15,-2.66,132.69,0.35,-0.64,-0.62,0.3,0.09,0.99,-0.09,-6.41,2.93,-5.19,-224.16,-428.73,-663.53,1.09,0.95,-0.04,1013.51,7.88,44,2
00:01:05:827,93.25,2.7,-132.69,93.25,-2.7,132.69,0.35,-0.64,-0.62,0.3,0.09,1,-0.1,-6.35,2.99,-5.19,-238.17,-428.73,-670.3,1.09,0.95,-0.04,1013.49,7.95,44,2
00:01:06:009,93.54,2.62,-132.7,93.54,-2.62,132.7,0.35,-0.64,-0.62,0.3,0.09,0.99,-0.11,-6.35,3.17,-5.19,-238.17,-428.73,-670.3,1.08,0.95,-0.05,1013.51,7.88,43,2
00:01:06:125,93.46,2.64,-132.71,93.46,-2.64,132.71,0.35,-0.64,-0.62,0.3,0.09,0.99,-0.11,-6.41,2.93,-5.25,-234.67,-428.73,-670.3,1.09,0.95,-0.05,1013.51,7.79,41,2
00:01:06:241,93.3,2.78,-132.69,93.3,-2.78,132.69,0.35,-0.64,-0.62,0.3,0.09,0.99,-0.1,-6.29,3.11,-5.13,-246.92,-441.03,-675.38,1.09,0.95,-0.04,1013.49,7.91,43,2
00:01:06:356,93.07,2.79,-132.73,93.07,-2.79,132.73,0.35,-0.64,-0.62,0.3,0.09,0.99,-0.11,-6.59,2.99,-5.19,-224.16,-439.27,-680.45,1.09,0.95,-0.05,1013.49,7.96,42,2
00:01:06:472,93.12,2.72,-132.75,93.12,-2.72,132.75,0.35,-0.64,-0.62,0.3,0.1,0.99,-0.1,-6.23,2.99,-5.13,-231.16,-435.76,-663.53,1.09,0.95,-0.05,1013.49,8.07,44,2
00:01:06:587,92.93,2.76,-132.8,92.93,-2.76,132.8,0.35,-0.64,-0.62,0.3,0.09,0.99,-0.1,-6.59,2.99,-5.13,-246.92,-437.52,-688.92,1.08,0.94,-0.05,1013.48,8,42,2
00:01:06:703,93.09,2.68,-132.75,93.09,-2.68,132.75,0.35,-0.64,-0.62,0.3,0.07,1,-0.11,-6.16,3.3,-5.13,-243.42,-430.49,-668.6,1.07,0.95,-0.06,1013.48,8,43,2
00:01:06:818,93.18,2.75,-132.74,93.18,-2.75,132.74,0.35,-0.64,-0.62,0.3,0.09,0.99,-0.09,-6.65,2.93,-5.13,-231.16,-418.19,-670.3,1.09,0.94,-0.03,1013.49,7.91,42,2
00:01:06:934,93.13,2.78,-132.66,93.13,-2.78,132.66,0.35,-0.64,-0.62,0.3,0.09,0.99,-0.1,-6.47,2.93,-5.19,-222.41,-437.52,-675.38,1.09,0.95,-0.05,1013.49,7.98,43,2
00:01:07:050,93.36,2.68,-132.67,93.36,-2.68,132.67,0.35,-0.64,-0.62,0.3,0.09,0.99,-0.11,-6.23,3.05,-5.13,-234.67,-425.22,-680.45,1.08,0.95,-0.05,1013.5,7.95,43,2
00:01:07:166,93.14,2.62,-132.59,93.14,-2.62,132.59,0.35,-0.64,-0.62,0.3,0.09,0.99,-0.09,-6.59,2.99,-5.19,-218.91,-419.95,-682.15,1.08,0.95,-0.04,1013.5,7.87,43,2
00:01:07:282,93.33,2.58,-132.52,93.33,-2.58,132.52,0.35,-0.64,-0.62,0.3,0.08,0.99,-0.11,-6.35,3.3,-5.19,-238.17,-435.76,-673.68,1.08,0.95,-0.05,1013.5,7.89,44,2
00:01:07:397,93.38,2.64,-132.58,93.38,-2.64,132.58,0.35,-0.64,-0.62,0.3,0.09,0.99,-0.08,-6.59,2.93,-5.25,-238.17,-432.25,-673.68,1.08,0.94,-0.03,1013.5,7.97,42,2
00:01:07:513,93.29,2.64,-132.61,93.29,-2.64,132.61,0.35,-0.64,-0.62,0.3,0.08,0.99,-0.09,-6.59,2.93,-5.19,-232.91,-434,-671.99,1.08,0.95,-0.03,1013.5,7.95,43,2
00:01:07:629,93.45,2.6,-132.62,93.45,-2.6,132.62,0.35,-0.64,-0.62,0.3,0.08,0.99,-0.09,-6.41,3.11,-5.19,-239.92,-430.49,-685.53,1.08,0.94,-0.03,1013.49,7.91,42,2
00:01:07:745,93.38,2.61,-132.59,93.38,-2.61,132.59,0.35,-0.64,-0.62,0.3,0.1,0.99,-0.08,-6.59,2.75,-5.19,-231.16,-442.79,-683.84,1.1,0.95,-0.03,1013.49,7.99,43,2
00:01:07:861,93.1,2.71,-132.63,93.1,-2.71,132.63,0.35,-0.64,-0.62,0.3,0.09,0.99,-0.11,-6.29,3.05,-5.31,-236.42,-448.06,-668.6,1.09,0.95,-0.05,1013.48,8.03,43,2
00:01:07:976,92.94,2.72,-132.75,92.94,-2.72,132.75,0.35,-0.64,-0.62,0.3,0.1,0.99,-0.1,-6.59,2.93,-5.19,-234.67,-439.27,-690.61,1.1,0.94,-0.05,1013.47,8.12,45,2
00:01:08:092,92.78,2.69,-132.68,92.78,-2.69,132.68,0.35,-0.64,-0.62,0.3,0.09,0.99,-0.09,-6.47,3.11,-5.19,-250.43,-426.97,-682.15,1.08,0.95,-0.05,1013.48,8.06,43,2
00:01:08:207,92.89,2.69,-132.6,92.89,-2.69,132.6,0.35,-0.64,-0.62,0.3,0.08,0.99,-0.09,-6.47,3.05,-5.25,-234.67,-435.76,-683.84,1.08,0.94,-0.04,1013.51,7.87,42,2
00:01:08:333,93.06,2.61,-132.54,93.06,-2.61,132.54,0.35,-0.64,-0.62,0.3,0.09,0.99,-0.11,-6.29,3.11,-5.31,-225.91,-419.95,-675.38,1.09,0.95,-0.05,1013.5,7.91,42,2
00:01:08:449,92.98,2.64,-132.47,92.98,-2.64,132.47,0.35,-0.64,-0.62,0.3,0.09,0.99,-0.1,-6.59,3.05,-5.19,-252.18,-425.22,-673.68,1.08,0.94,-0.05,1013.48,8.02,42,2
00:01:08:565,93.02,2.65,-132.47,93.02,-2.65,132.47,0.35,-0.64,-0.62,0.3,0.07,0.99,-0.1,-6.53,3.11,-5.25,-229.41,-437.52,-665.22,1.07,0.95,-0.05,1013.47,8.12,42,2
00:01:08:681,93.21,2.69,-132.51,93.21,-2.69,132.51,0.35,-0.64,-0.62,0.3,0.09,0.99,-0.1,-6.41,3.05,-5.13,-252.18,-418.19,-673.68,1.09,0.95,-0.05,1013.49,7.96,43,2
00:01:08:796,93.21,2.64,-132.43,93.21,-2.64,132.43,0.35,-0.64,-0.62,0.3,0.09,0.99,-0.09,-6.59,2.81,-5.13,-241.67,-432.25,-677.07,1.09,0.95,-0.03,1013.51,7.94,43,2
00:01:08:912,93.32,2.62,-132.43,93.32,-2.62,132.43,0.35,-0.64,-0.62,0.3,0.09,0.99,-0.07,-6.53,2.93,-5.19,-246.92,-430.49,-685.53,1.09,0.95,-0.02,1013.5,7.92,45,2
00:01:09:027,93.34,2.63,-132.39,93.34,-2.63,132.39,0.35,-0.64,-0.62,0.3,0.09,0.99,-0.09,-6.65,2.93,-5.25,-234.67,-432.25,-677.07,1.09,0.94,-0.04,1013.5,7.89,42,2
00:01:09:143,93.4,2.54,-132.42,93.4,-2.54,132.42,0.35,-0.64,-0.62,0.3,0.08,0.99,-0.1,-6.29,3.11,-5.19,-229.41,-430.49,-678.76,1.08,0.94,-0.04,1013.49,7.92,42,2
00:01:09:259,93.2,2.66,-132.4,93.2,-2.66,132.4,0.35,-0.64,-0.62,0.3,0.11,0.99,-0.09,-6.59,2.87,-5.25,-231.16,-428.73,-680.45,1.11,0.94,-0.04,1013.5,8.04,43,2
00:01:09:375,92.97,2.65,-132.38,92.97,-2.65,132.38,0.35,-0.64,-0.62,0.3,0.09,1,-0.1,-6.29,3.11,-5.25,-245.17,-425.22,-673.68,1.09,0.95,-0.05,1013.49,7.83,44,2
00:01:09:491,93,2.72,-132.4,93,-2.72,132.4,0.35,-0.64,-0.62,0.3,0.09,0.99,-0.09,-6.47,2.99,-5.19,-245.17,-439.27,-660.14,1.08,0.95,-0.04,1013.51,7.98,44,2
00:01:09:606,92.8,2.73,-132.53,92.8,-2.73,132.53,0.35,-0.63,-0.62,0.3,0.09,0.99,-0.09,-6.59,2.93,-5.25,-241.67,-435.76,-673.68,1.08,0.95,-0.04,1013.5,7.98,44,2
00:01:09:722,92.9,2.75,-132.53,92.9,-2.75,132.53,0.35,-0.64,-0.62,0.3,0.09,1,-0.1,-6.23,3.11,-5.25,-231.16,-421.7,-663.53,1.09,0.95,-0.05,1013.49,8.02,43,2
00:01:09:837,92.84,2.77,-132.49,92.84,-2.77,132.49,0.35,-0.63,-0.62,0.3,0.1,0.99,-0.07,-6.84,2.81,-5.25,-250.43,-434,-682.15,1.09,0.94,-0.02,1013.49,7.91,43,2
00:01:09:953,92.71,2.71,-132.46,92.71,-2.71,132.46,0.35,-0.63,-0.62,0.3,0.09,0.99,-0.11,-6.35,3.05,-5.19,-231.16,-435.76,-673.68,1.08,0.95,-0.06,1013.5,7.89,43,2
00:01:10:069,92.75,2.7,-132.5,92.75,-2.7,132.5,0.35,-0.63,-0.62,0.3,0.09,0.99,-0.1,-6.47,3.05,-5.19,-227.66,-439.27,-677.07,1.09,0.94,-0.05,1013.49,8.01,42,2
00:01:10:185,92.79,2.82,-132.53,92.79,-2.82,132.53,0.35,-0.63,-0.62,0.3,0.08,1,-0.1,-6.47,2.99,-5.19,-231.16,-446.3,-663.53,1.08,0.95,-0.05,1013.5,7.96,42,2
00:01:10:301,92.99,2.77,-132.64,92.99,-2.77,132.64,0.35,-0.64,-0.62,0.3,0.09,0.99,-0.12,-6.35,3.05,-5.31,-224.16,-432.25,-673.68,1.09,0.94,-0.06,1013.5,7.93,44,2
00:01:10:416,92.93,2.79,-132.61,92.93,-2.79,132.61,0.35,-0.64,-0.62,0.3,0.09,1,-0.1,-6.53,2.87,-5.13,-243.42,-426.97,-682.15,1.09,0.95,-0.05,1013.49,8.06,45,2
00:01:10:532,93.07,2.69,-132.57,93.07,-2.69,132.57,0.35,-0.64,-0.62,0.3,0.09,1,-0.1,-6.53,2.75,-5.19,-245.17,-428.73,-660.14,1.09,0.95,-0.05,1013.48,8.05,41,2
00:01:10:660,92.77,2.72,-132.62,92.77,-2.72,132.62,0.35,-0.63,-0.62,0.3,0.09,1,-0.1,-6.35,3.05,-5.19,-229.41,-437.52,-675.38,1.09,0.95,-0.06,1013.47,8.08,43,2
00:01:10:776,92.75,2.76,-132.63,92.75,-2.76,132.63,0.35,-0.63,-0.62,0.3,0.08,0.99,-0.09,-6.53,2.99,-5.07,-231.16,-421.7,-673.68,1.08,0.94,-0.05,1013.47,8.2,43,2
00:01:10:892,92.75,2.65,-132.55,92.75,-2.65,132.55,0.35,-0.63,-0.62,0.3,0.09,0.99,-0.09,-6.53,3.11,-5.31,-234.67,-425.22,-680.45,1.09,0.95,-0.04,1013.47,8.27,42,2
00:01:11:007,92.84,2.59,-132.46,92.84,-2.59,132.46,0.35,-0.64,-0.62,0.3,0.09,0.99,-0.09,-6.47,3.05,-5.19,-243.42,-423.46,-682.15,1.09,0.94,-0.04,1013.47,8.15,44,2
00:01:11:127,92.46,2.53,-132.34,92.46,-2.53,132.34,0.35,-0.63,-0.62,0.31,0.09,1,-0.11,-6.35,3.11,-5.13,-243.42,-423.46,-682.15,1.09,0.95,-0.07,1013.48,8.07,41,2
00:01:11:243,92.45,2.59,-132.31,92.45,-2.59,132.31,0.35,-0.63,-0.62,0.31,0.08,0.98,-0.08,-6.65,2.99,-5.19,-239.92,-434,-671.99,1.08,0.94,-0.04,1013.49,8.01,43,2
00:01:11:359,92.66,2.58,-132.33,92.66,-2.58,132.33,0.35,-0.63,-0.62,0.31,0.07,1,-0.11,-6.23,3.3,-5.19,-243.42,-423.46,-678.76,1.07,0.96,-0.06,1013.5,7.94,41,2
00:01:11:475,92.87,2.69,-132.32,92.87,-2.69,132.32,0.35,-0.63,-0.62,0.3,0.08,0.99,-0.11,-6.53,3.05,-5.25,-227.66,-442.79,-680.45,1.08,0.95,-0.06,1013.49,8.01,41,2
00:01:11:591,92.89,2.69,-132.36,92.89,-2.69,132.36,0.35,-0.63,-0.62,0.3,0.09,1,-0.12,-6.35,2.99,-5.25,-231.16,-425.22,-673.68,1.09,0.95,-0.06,1013.47,8.15,42,2
00:01:11:706,93.11,2.6,-132.37,93.11,-2.6,132.37,0.35,-0.64,-0.62,0.3,0.09,0.99,-0.09,-6.71,2.87,-5.19,-234.67,-442.79,-670.3,1.09,0.94,-0.03,1013.47,8.15,43,2
00:01:11:822,93.04,2.7,-132.47,93.04,-2.7,132.47,0.35,-0.64,-0.62,0.3,0.1,0.99,-0.07,-6.65,2.87,-5.19,-231.16,-432.25,-670.3,1.1,0.94,-0.02,1013.48,8.08,45,2
00:01:11:937,93.2,2.72,-132.5,93.2,-2.72,132.5,0.35,-0.64,-0.62,0.3,0.09,0.99,-0.09,-6.29,2.99,-5.13,-231.16,-435.76,-670.3,1.09,0.94,-0.04,1013.49,7.96,43,2
00:01:12:053,93.08,2.79,-132.55,93.08,-2.79,132.55,0.35,-0.64,-0.62,0.3,0.09,0.99,-0.08,-6.59,2.93,-5.19,-229.41,-441.03,-661.83,1.09,0.94,-0.03,1013.48,8.05,42,2
00:01:12:169,93.1,2.81,-132.62,93.1,-2.81,132.62,0.35,-0.64,-0.62,0.3,0.09,0.99,-0.11,-6.41,2.93,-5.19,-225.91,-426.97,-675.38,1.08,0.94,-0.05,1013.49,8.02,41,2
00:01:12:285,93.15,2.73,-132.6,93.15,-2.73,132.6,0.35,-0.64,-0.62,0.3,0.09,0.99,-0.08,-6.53,2.87,-5.19,-234.67,-428.73,-683.84,1.09,0.94,-0.02,1013.49,7.94,44,2
00:01:12:401,93.15,2.78,-132.52,93.15,-2.78,132.52,0.35,-0.64,-0.62,0.3,0.09,0.99,-0.07,-6.77,2.93,-5.25,-224.16,-421.7,-670.3,1.09,0.94,-0.02,1013.49,8.04,43,2
00:01:12:516,93.28,2.68,-132.48,93.28,-2.68,132.48,0.35,-0.64,-0.62,0.3,0.09,1,-0.1,-6.23,3.05,-5.25,-232.91,-434,-671.99,1.09,0.95,-0.04,1013.5,7.92,43,2
00:01:12:632,93.05,2.79,-132.49,93.05,-2.79,132.49,0.35,-0.64,-0.62,0.3,0.1,0.99,-0.09,-6.59,2.87,-5.13,-236.42,-423.46,-668.6,1.09,0.94,-0.03,1013.49,8.07,41,2
00:01:12:747,92.82,2.77,-132.45,92.82,-2.77,132.45,0.35,-0.63,-0.62,0.3,0.09,0.99,-0.12,-6.23,3.17,-5.19,-241.67,-425.22,-670.3,1.08,0.94,-0.07,1013.49,8.06,41,2
00:01:12:863,92.82,2.77,-132.48,92.82,-2.77,132.48,0.35,-0.63,-0.62,0.3,0.09,0.99,-0.09,-6.53,3.05,-5.25,-227.66,-439.27,-656.76,1.09,0.94,-0.04,1013.49,8,43,2
00:01:12:979,92.8,2.81,-132.56,92.8,-2.81,132.56,0.35,-0.63,-0.62,0.3,0.08,1,-0.11,-6.35,3.23,-5.25,-236.42,-434,-675.38,1.08,0.95,-0.06,1013.49,8.01,42,2
00:01:13:095,92.98,2.8,-132.55,92.98,-2.8,132.55,0.35,-0.64,-0.62,0.3,0.08,1,-0.1,-6.41,3.17,-5.13,-236.42,-434,-678.76,1.08,0.95,-0.05,1013.49,7.99,40,2
00:01:13:211,92.82,2.82,-132.56,92.82,-2.82,132.56,0.35,-0.63,-0.62,0.3,0.09,0.98,-0.09,-6.84,2.87,-5.25,-246.92,-434,-655.06,1.09,0.94,-0.04,1013.49,7.96,43,2
00:01:13:326,92.82,2.74,-132.65,92.82,-2.74,132.65,0.35,-0.64,-0.62,0.3,0.09,0.99,-0.1,-6.53,3.05,-5.19,-232.91,-430.49,-671.99,1.08,0.94,-0.05,1013.49,7.97,43,2
00:01:13:452,92.93,2.74,-132.65,92.93,-2.74,132.65,0.35,-0.64,-0.62,0.3,0.09,1,-0.11,-6.41,2.99,-5.19,-234.67,-442.79,-673.68,1.08,0.95,-0.06,1013.49,7.91,43,2
00:01:13:567,93.04,2.73,-132.71,93.04,-2.73,132.71,0.35,-0.64,-0.62,0.3,0.09,0.99,-0.09,-6.65,2.87,-5.13,-241.67,-435.76,-677.07,1.09,0.94,-0.04,1013.5,7.96,42,2
00:01:13:683,93.11,2.74,-132.74,93.11,-2.74,132.74,0.35,-0.64,-0.62,0.3,0.09,0.99,-0.09,-6.53,2.93,-5.13,-232.91,-441.03,-655.06,1.09,0.94,-0.04,1013.5,7.95,43,2
00:01:13:799,93.2,2.83,-132.82,93.2,-2.83,132.82,0.35,-0.64,-0.62,0.3,0.09,0.99,-0.09,-6.65,2.99,-5.19,-238.17,-432.25,-660.14,1.09,0.94,-0.03,1013.51,7.87,41,2
00:01:13:915,93.1,2.77,-132.85,93.1,-2.77,132.85,0.35,-0.64,-0.62,0.3,0.09,0.98,-0.08,-6.59,2.87,-5.25,-238.17,-446.3,-677.07,1.08,0.94,-0.02,1013.51,7.89,43,2
00:01:14:031,93.13,2.83,-132.9,93.13,-2.83,132.9,0.35,-0.64,-0.62,0.3,0.08,0.99,-0.1,-6.16,3.17,-5.25,-224.16,-442.79,-660.14,1.08,0.94,-0.04,1013.51,7.89,41,2
00:01:14:146,92.96,2.87,-132.97,92.96,-2.87,132.97,0.35,-0.64,-0.62,0.3,0.08,0.99,-0.08,-6.53,2.99,-5.25,-231.16,-439.27,-687.22,1.08,0.94,-0.03,1013.49,8.08,42,2
00:01:14:262,92.87,2.77,-132.91,92.87,-2.77,132.91,0.35,-0.64,-0.62,0.3,0.07,1,-0.1,-6.23,3.3,-5.13,-229.41,-430.49,-665.22,1.07,0.95,-0.05,1013.48,8.02,43,2
00:01:14:377,93.02,2.84,-132.9,93.02,-2.84,132.9,0.35,-0.64,-0.62,0.3,0.08,0.99,-0.1,-6.35,3.23,-5.19,-241.67,-446.3,-673.68,1.08,0.94,-0.05,1013.5,7.9,41,2
00:01:14:493,92.95,2.8,-132.94,92.95,-2.8,132.94,0.35,-0.64,-0.62,0.3,0.09,1,-0.1,-6.29,2.99,-5.13,-229.41,-437.52,-671.99,1.09,0.95,-0.05,1013.51,7.91,43,2
00:01:14:609,92.98,2.73,-132.92,92.98,-2.73,132.92,0.35,-0.64,-0.62,0.3,0.1,1,-0.1,-6.35,2.87,-5.25,-224.16,-435.76,-677.07,1.09,0.95,-0.04,1013.5,7.9,41,2
00:01:14:725,92.92,2.73,-132.87,92.92,-2.73,132.87,0.35,-0.64,-0.62,0.3,0.09,0.99,-0.09,-6.53,2.99,-5.19,-250.43,-441.03,-668.6,1.08,0.94,-0.04,1013.5,8,43,2
00:01:14:841,92.88,2.68,-132.87,92.88,-2.68,132.87,0.35,-0.64,-0.62,0.3,0.08,1,-0.12,-6.35,3.17,-5.07,-241.67,-421.7,-680.45,1.08,0.95,-0.07,1013.49,7.94,42,2
00:01:14:956,93.01,2.64,-132.75,93.01,-2.64,132.75,0.35,-0.64,-0.62,0.3,0.1,0.99,-0.11,-6.53,3.05,-5.25,-229.41,-430.49,-671.99,1.1,0.95,-0.06,1013.49,7.99,43,2
00:01:15:072,92.99,2.66,-132.72,92.99,-2.66,132.72,0.35,-0.64,-0.62,0.3,0.07,0.99,-0.1,-6.47,2.93,-5.25,-224.16,-432.25,-677.07,1.07,0.94,-0.05,1013.49,8.02,42,2
00:01:15:187,93.32,2.64,-132.7,93.32,-2.64,132.7,0.35,-0.64,-0.62,0.3,0.09,0.99,-0.1,-6.41,3.05,-5.19,-232.91,-430.49,-682.15,1.09,0.95,-0.04,1013.49,7.99,41,2
00:01:15:303,93.29,2.67,-132.65,93.29,-2.67,132.65,0.35,-0.64,-0.62,0.3,0.09,1,-0.1,-6.59,2.93,-5.25,-245.17,-435.76,-677.07,1.09,0.95,-0.05,1013.5,7.81,43,2
00:01:15:419,93.43,2.65,-132.68,93.43,-2.65,132.68,0.35,-0.64,-0.62,0.3,0.1,1,-0.09,-6.47,2.81,-5.25,-232.91,-437.52,-675.38,1.09,0.95,-0.03,1013.5,7.94,42,2
00:01:15:535,93.26,2.68,-132.72,93.26,-2.68,132.72,0.35,-0.64,-0.62,0.3,0.1,0.98,-0.09,-6.59,3.05,-5.19,-234.67,-432.25,-670.3,1.1,0.94,-0.03,1013.47,8.04,41,2
00:01:15:651,93.35,2.68,-132.69,93.35,-2.68,132.69,0.35,-0.64,-0.62,0.3,0.08,1,-0.11,-6.23,3.05,-5.25,-252.18,-425.22,-677.07,1.08,0.95,-0.05,1013.49,8.1,43,2
00:01:15:778,93.15,2.73,-132.63,93.15,-2.73,132.63,0.35,-0.64,-0.62,0.3,0.08,1,-0.1,-6.47,3.05,-5.19,-232.91,-434,-678.76,1.08,0.95,-0.05,1013.49,8.14,43,2
00:01:15:894,93.23,2.69,-132.62,93.23,-2.69,132.62,0.35,-0.64,-0.62,0.3,0.09,0.99,-0.1,-6.29,3.11,-5.07,-236.42,-437.52,-668.6,1.08,0.94,-0.05,1013.5,8,45,2
00:01:16:010,93.02,2.83,-132.64,93.02,-2.83,132.64,0.35,-0.64,-0.62,0.3,0.09,0.99,-0.09,-6.53,2.93,-5.19,-234.67,-428.73,-673.68,1.09,0.94,-0.04,1013.49,7.99,43,2
00:01:16:155,92.99,2.79,-132.58,92.99,-2.79,132.58,0.35,-0.64,-0.62,0.3,0.09,0.99,-0.11,-6.35,3.05,-5.19,-234.67,-428.73,-673.68,1.08,0.94,-0.06,1013.5,7.94,40,2
00:01:16:271,92.98,2.74,-132.54,92.98,-2.74,132.54,0.35,-0.64,-0.62,0.3,0.08,0.99,-0.11,-6.41,2.93,-5.19,-229.41,-426.97,-678.76,1.08,0.94,-0.05,1013.5,7.96,42,2
00:01:16:386,93.21,2.6,-132.52,93.21,-2.6,132.52,0.35,-0.64,-0.62,0.3,0.09,0.99,-0.09,-6.47,3.11,-5.13,-241.67,-446.3,-677.07,1.09,0.95,-0.03,1013.49,8,42,2
00:01:16:502,93.17,2.67,-132.6,93.17,-2.67,132.6,0.35,-0.64,-0.62,0.3,0.09,1,-0.11,-6.41,2.87,-5.13,-239.92,-434,-682.15,1.09,0.96,-0.05,1013.49,8.01,42,2
00:01:16:618,93.32,2.61,-132.62,93.32,-2.61,132.62,0.35,-0.64,-0.62,0.3,0.09,0.99,-0.1,-6.47,2.99,-5.19,-229.41,-444.55,-655.06,1.08,0.95,-0.04,1013.48,7.94,43,2
00:01:16:734,93.09,2.61,-132.74,93.09,-2.61,132.74,0.35,-0.64,-0.62,0.3,0.09,0.99,-0.08,-6.71,2.99,-5.19,-232.91,-441.03,-685.53,1.08,0.94,-0.03,1013.48,8.07,40,2
00:01:16:850,93.11,2.59,-132.74,93.11,-2.59,132.74,0.35,-0.64,-0.62,0.3,0.08,0.99,-0.1,-6.41,3.17,-5.13,-231.16,-435.76,-677.07,1.08,0.95,-0.05,1013.5,7.86,43,2
00:01:16:965,93.14,2.67,-132.73,93.14,-2.67,132.73,0.35,-0.64,-0.62,0.3,0.1,0.99,-0.08,-6.53,2.87,-5.13,-234.67,-428.73,-670.3,1.1,0.94,-0.03,1013.5,7.87,43,2
00:01:17:081,93.14,2.62,-132.71,93.14,-2.62,132.71,0.35,-0.64,-0.62,0.3,0.09,0.99,-0.1,-6.53,3.05,-5.19,-231.16,-421.7,-670.3,1.09,0.95,-0.04,1013.5,7.99,41,2
00:01:17:196,93.44,2.61,-132.67,93.44,-2.61,132.67,0.35,-0.64,-0.62,0.3,0.1,0.99,-0.1,-6.41,2.87,-5.13,-227.66,-449.82,-683.84,1.09,0.95,-0.04,1013.5,7.93,41,2
00:01:17:312,93.3,2.56,-132.76,93.3,-2.56,132.76,0.35,-0.64,-0.62,0.3,0.09,0.99,-0.09,-6.65,2.87,-5.19,-236.42,-441.03,-671.99,1.09,0.95,-0.03,1013.5,7.86,43,2
00:01:17:428,93.2,2.54,-132.8,93.2,-2.54,132.8,0.35,-0.64,-0.62,0.3,0.09,0.99,-0.09,-6.53,3.05,-5.13,-232.91,-441.03,-685.53,1.09,0.95,-0.04,1013.52,7.78,41,2
00:01:17:544,93.21,2.56,-132.76,93.21,-2.56,132.76,0.35,-0.64,-0.62,0.3,0.09,0.99,-0.08,-6.29,3.11,-5.25,-224.16,-432.25,-683.84,1.08,0.95,-0.03,1013.51,7.92,43,2
00:01:17:660,93.02,2.55,-132.7,93.02,-2.55,132.7,0.35,-0.64,-0.62,0.3,0.09,0.99,-0.1,-6.53,3.05,-5.19,-218.91,-441.03,-678.76,1.08,0.95,-0.04,1013.5,7.9,45,2
00:01:17:775,93.11,2.67,-132.73,93.11,-2.67,132.73,0.35,-0.64,-0.62,0.3,0.09,0.99,-0.09,-6.35,3.17,-5.25,-243.42,-426.97,-675.38,1.09,0.94,-0.04,1013.51,7.76,43,2
00:01:17:891,93.02,2.78,-132.68,93.02,-2.78,132.68,0.35,-0.64,-0.62,0.3,0.08,0.99,-0.09,-6.41,3.05,-5.25,-236.42,-430.49,-668.6,1.08,0.94,-0.04,1013.51,7.93,43,2
00:01:18:006,93.14,2.72,-132.67,93.14,-2.72,132.67,0.35,-0.64,-0.62,0.3,0.09,0.99,-0.11,-6.29,3.3,-5.13,-246.92,-419.95,-682.15,1.08,0.95,-0.05,1013.5,7.93,44,2
00:01:18:122,93.14,2.69,-132.59,93.14,-2.69,132.59,0.35,-0.64,-0.62,0.3,0.09,0.99,-0.1,-6.53,2.99,-5.25,-239.92,-441.03,-675.38,1.08,0.95,-0.05,1013.49,7.9,43,2
00:01:18:238,93.19,2.63,-132.63,93.19,-2.63,132.63,0.35,-0.64,-0.62,0.3,0.08,0.99,-0.1,-6.59,3.05,-5.19,-229.41,-426.97,-671.99,1.08,0.94,-0.05,1013.51,7.76,43,2
00:01:18:354,93.22,2.56,-132.62,93.22,-2.56,132.62,0.35,-0.64,-0.62,0.3,0.09,0.98,-0.1,-6.47,3.11,-5.19,-234.67,-432.25,-666.91,1.09,0.94,-0.04,1013.53,7.81,43,2
00:01:18:480,93.28,2.66,-132.65,93.28,-2.66,132.65,0.35,-0.64,-0.62,0.3,0.1,0.99,-0.08,-6.59,2.93,-5.25,-231.16,-425.22,-663.53,1.09,0.94,-0.02,1013.5,7.89,42,2
00:01:18:595,93.21,2.59,-132.64,93.21,-2.59,132.64,0.35,-0.64,-0.62,0.3,0.09,1,-0.09,-6.59,2.81,-5.25,-232.91,-423.46,-678.76,1.08,0.95,-0.03,1013.51,7.8,41,2
00:01:18:711,93.28,2.58,-132.59,93.28,-2.58,132.59,0.35,-0.64,-0.62,0.3,0.1,0.99,-0.09,-6.47,3.05,-5.25,-239.92,-430.49,-671.99,1.09,0.95,-0.03,1013.52,7.75,43,2
00:01:18:826,93.15,2.65,-132.6,93.15,-2.65,132.6,0.35,-0.64,-0.62,0.3,0.09,0.99,-0.08,-6.59,2.99,-5.13,-238.17,-442.79,-683.84,1.09,0.94,-0.03,1013.53,7.75,41,2
00:01:18:942,92.92,2.68,-132.59,92.92,-2.68,132.59,0.35,-0.64,-0.62,0.3,0.09,0.99,-0.11,-6.16,3.17,-5.13,-232.91,-426.97,-682.15,1.09,0.94,-0.06,1013.5,7.9,44,2
00:01:19:058,92.63,2.63,-132.51,92.63,-2.63,132.51,0.35,-0.63,-0.62,0.3,0.09,0.99,-0.09,-6.47,3.17,-5.13,-245.17,-425.22,-670.3,1.09,0.94,-0.05,1013.51,7.92,41,2
00:01:19:174,92.57,2.65,-132.51,92.57,-2.65,132.51,0.35,-0.63,-0.62,0.3,0.08,1,-0.11,-6.35,3.05,-5.31,-234.67,-428.73,-670.3,1.08,0.95,-0.06,1013.49,7.95,41,2
00:01:19:290,92.84,2.61,-132.52,92.84,-2.61,132.52,0.35,-0.64,-0.62,0.3,0.09,1,-0.1,-6.41,3.11,-5.19,-236.42,-426.97,-668.6,1.09,0.95,-0.05,1013.5,7.78,43,2
00:01:19:405,92.92,2.59,-132.51,92.92,-2.59,132.51,0.35,-0.64,-0.62,0.3,0.09,0.99,-0.08,-6.53,2.99,-5.13,-231.16,-425.22,-673.68,1.08,0.95,-0.03,1013.53,7.7,43,2
00:01:19:521,93.05,2.57,-132.5,93.05,-2.57,132.5,0.35,-0.64,-0.62,0.3,0.08,1,-0.11,-6.16,2.99,-5.19,-234.67,-432.25,-670.3,1.08,0.96,-0.06,1013.5,7.83,43,2
00:01:19:636,93.07,2.56,-132.52,93.07,-2.56,132.52,0.35,-0.64,-0.62,0.3,0.08,0.99,-0.08,-6.59,2.99,-5.25,-231.16,-432.25,-690.61,1.08,0.94,-0.03,1013.53,7.75,42,2
00:01:19:752,92.94,2.74,-132.42,92.94,-2.74,132.42,0.35,-0.64,-0.62,0.3,0.08,0.99,-0.11,-6.41,2.99,-5.19,-234.67,-421.7,-677.07,1.08,0.95,-0.05,1013.51,7.82,43,2
00:01:19:868,92.95,2.74,-132.38,92.95,-2.74,132.38,0.35,-0.63,-0.62,0.3,0.09,0.99,-0.1,-6.47,3.11,-5.25,-234.67,-439.27,-680.45,1.08,0.94,-0.05,1013.51,7.93,41,2
00:01:19:984,92.99,2.71,-132.43,92.99,-2.71,132.43,0.35,-0.64,-0.62,0.3,0.09,0.99,-0.09,-6.65,2.99,-5.19,-229.41,-434,-661.83,1.09,0.94,-0.03,1013.51,7.94,45,2
00:01:20:100,93.11,2.69,-132.47,93.11,-2.69,132.47,0.35,-0.64,-0.62,0.3,0.09,1.01,-0.13,-6.23,2.93,-5.25,-241.67,-432.25,-683.84,1.09,0.96,-0.07,1013.5,7.91,43,2
00:01:20:215,93.17,2.6,-132.47,93.17,-2.6,132.47,0.35,-0.64,-0.62,0.3,0.08,1,-0.1,-6.53,3.05,-5.07,-227.66,-432.25,-673.68,1.08,0.95,-0.04,1013.5,7.91,43,2
00:01:20:331,93.12,2.63,-132.5,93.12,-2.63,132.5,0.35,-0.64,-0.62,0.3,0.07,0.99,-0.12,-6.41,3.11,-5.13,-229.41,-437.52,-671.99,1.07,0.95,-0.07,1013.5,7.82,43,2
00:01:20:446,93.34,2.68,-132.57,93.34,-2.68,132.57,0.35,-0.64,-0.62,0.3,0.08,0.99,-0.09,-6.53,2.99,-5.19,-229.41,-441.03,-661.83,1.08,0.94,-0.03,1013.51,7.89,41,2
00:01:20:562,93.25,2.77,-132.63,93.25,-2.77,132.63,0.35,-0.64,-0.62,0.3,0.1,0.99,-0.06,-6.71,2.81,-5.19,-238.17,-421.7,-670.3,1.1,0.94,-0.01,1013.51,7.88,42,2
00:01:20:678,93.48,2.69,-132.61,93.48,-2.69,132.61,0.35,-0.64,-0.62,0.3,0.09,0.99,-0.08,-6.47,3.11,-5.13,-220.66,-439.27,-670.3,1.09,0.95,-0.02,1013.52,7.82,43,2
00:01:20:804,93.13,2.81,-132.64,93.13,-2.81,132.64,0.35,-0.64,-0.62,0.3,0.09,1,-0.11,-6.35,3.05,-5.25,-243.42,-437.52,-682.15,1.09,0.95,-0.05,1013.51,7.78,43,2
00:01:20:920,93.15,2.78,-132.66,93.15,-2.78,132.66,0.35,-0.64,-0.62,0.3,0.09,0.98,-0.12,-6.41,3.17,-5.25,-236.42,-434,-665.22,1.09,0.93,-0.06,1013.51,7.8,45,2
00:01:21:035,92.97,2.78,-132.7,92.97,-2.78,132.7,0.35,-0.64,-0.62,0.3,0.09,0.99,-0.12,-6.59,2.93,-5.19,-234.67,-439.27,-680.45,1.09,0.94,-0.07,1013.51,7.81,42,2
00:01:21:151,93.05,2.72,-132.68,93.05,-2.72,132.68,0.35,-0.64,-0.62,0.3,0.08,0.99,-0.12,-6.41,3.11,-5.19,-231.16,-418.19,-677.07,1.08,0.95,-0.07,1013.5,7.81,41,2
00:01:21:274,93.15,2.65,-132.54,93.15,-2.65,132.54,0.35,-0.64,-0.62,0.3,0.09,0.99,-0.07,-6.59,2.81,-5.19,-231.16,-439.27,-666.91,1.09,0.94,-0.02,1013.51,7.76,43,2
00:01:21:390,92.96,2.73,-132.62,92.96,-2.73,132.62,0.35,-0.64,-0.62,0.3,0.09,0.99,-0.06,-6.59,2.99,-5.25,-238.17,-449.82,-683.84,1.09,0.94,-0.01,1013.51,7.85,42,2
00:01:21:505,92.71,2.66,-132.68,92.71,-2.66,132.68,0.35,-0.63,-0.62,0.3,0.09,0.99,-0.07,-6.47,2.99,-5.19,-236.42,-434,-658.45,1.09,0.94,-0.02,1013.5,7.94,41,2
00:01:21:621,92.57,2.64,-132.74,92.57,-2.64,132.74,0.35,-0.63,-0.62,0.3,0.09,0.99,-0.11,-6.29,3.17,-5.13,-234.67,-442.79,-673.68,1.09,0.94,-0.06,1013.51,7.91,43,2
00:01:21:736,92.36,2.82,-132.76,92.36,-2.82,132.76,0.35,-0.63,-0.62,0.3,0.09,0.99,-0.13,-6.41,3.11,-5.13,-250.43,-430.49,-685.53,1.09,0.94,-0.09,1013.51,7.92,41,2
00:01:21:852,92.35,2.77,-132.68,92.35,-2.77,132.68,0.35,-0.63,-0.62,0.3,0.09,0.99,-0.13,-6.47,3.05,-5.13,-241.67,-435.76,-670.3,1.09,0.95,-0.09,1013.51,7.83,41,2
00:01:21:968,92.63,2.65,-132.7,92.63,-2.65,132.7,0.35,-0.63,-0.62,0.3,0.08,0.99,-0.12,-6.35,2.99,-5.25,-227.66,-428.73,-680.45,1.08,0.95,-0.07,1013.52,7.68,43,2
00:01:22:084,92.82,2.66,-132.63,92.82,-2.66,132.63,0.35,-0.64,-0.62,0.3,0.09,0.99,-0.11,-6.53,2.87,-5.19,-229.41,-426.97,-685.53,1.09,0.94,-0.06,1013.51,7.74,41,2
00:01:22:200,93.2,2.58,-132.58,93.2,-2.58,132.58,0.35,-0.64,-0.62,0.3,0.08,1,-0.11,-6.35,2.93,-5.19,-229.41,-434,-671.99,1.08,0.96,-0.05,1013.52,7.82,43,2
00:01:22:315,93.33,2.57,-132.62,93.33,-2.57,132.62,0.35,-0.64,-0.62,0.3,0.09,1,-0.07,-6.71,2.69,-5.13,-225.91,-437.52,-678.76,1.09,0.95,-0.02,1013.51,7.94,43,2
00:01:22:431,93.21,2.65,-132.66,93.21,-2.65,132.66,0.35,-0.64,-0.62,0.3,0.09,0.98,-0.09,-6.77,2.93,-5.19,-234.67,-446.3,-666.91,1.09,0.94,-0.03,1013.51,7.72,43,2
00:01:22:546,93.17,2.78,-132.77,93.17,-2.78,132.77,0.35,-0.64,-0.62,0.3,0.09,1,-0.1,-6.16,3.05,-5.13,-217.15,-435.76,-677.07,1.09,0.95,-0.05,1013.5,7.92,41,2
00:01:22:662,92.82,2.76,-132.7,92.82,-2.76,132.7,0.35,-0.64,-0.62,0.3,0.09,0.99,-0.1,-6.53,2.99,-5.19,-229.41,-419.95,-671.99,1.09,0.94,-0.05,1013.49,7.95,40,2
00:01:22:778,92.96,2.79,-132.6,92.96,-2.79,132.6,0.35,-0.64,-0.62,0.3,0.09,0.99,-0.11,-6.47,2.93,-5.31,-229.41,-423.46,-665.22,1.09,0.94,-0.06,1013.49,8.04,41,2
00:01:22:894,93.13,2.79,-132.55,93.13,-2.79,132.55,0.35,-0.64,-0.62,0.3,0.09,0.99,-0.09,-6.53,3.11,-5.25,-231.16,-407.65,-670.3,1.09,0.94,-0.04,1013.47,8.12,43,2
00:01:23:010,93.3,2.71,-132.44,93.3,-2.71,132.44,0.35,-0.64,-0.62,0.3,0.09,0.99,-0.1,-6.65,2.75,-5.31,-243.42,-430.49,-665.22,1.09,0.95,-0.05,1013.48,7.99,41,2
00:01:23:125,93.43,2.73,-132.5,93.43,-2.73,132.5,0.35,-0.64,-0.62,0.3,0.09,0.99,-0.08,-6.53,2.93,-5.13,-234.67,-435.76,-673.68,1.08,0.95,-0.02,1013.5,7.86,45,2
00:01:23:241,93.37,2.76,-132.49,93.37,-2.76,132.49,0.35,-0.64,-0.62,0.3,0.09,0.99,-0.08,-6.84,2.81,-5.19,-232.91,-416.43,-682.15,1.09,0.94,-0.02,1013.5,7.96,43,2
00:01:23:356,93.52,2.74,-132.38,93.52,-2.74,132.38,0.35,-0.64,-0.62,0.3,0.09,0.99,-0.09,-6.53,3.05,-5.13,-231.16,-432.25,-673.68,1.09,0.94,-0.03,1013.48,8.02,44,2
00:01:23:472,93.35,2.74,-132.42,93.35,-2.74,132.42,0.35,-0.64,-0.62,0.3,0.08,0.99,-0.07,-6.53,2.99,-5.13,-234.67,-428.73,-677.07,1.08,0.94,-0.01,1013.48,8.09,44,2
00:01:23:599,93.18,2.73,-132.44,93.18,-2.73,132.44,0.35,-0.64,-0.62,0.3,0.09,0.99,-0.1,-6.59,3.05,-5.25,-238.17,-442.79,-666.91,1.08,0.94,-0.04,1013.49,8.01,42,2
00:01:23:714,92.95,2.8,-132.56,92.95,-2.8,132.56,0.35,-0.64,-0.62,0.3,0.09,1.01,-0.11,-6.29,3.05,-5.19,-236.42,-434,-671.99,1.09,0.96,-0.06,1013.48,7.97,42,2
00:01:23:830,92.91,2.75,-132.59,92.91,-2.75,132.59,0.35,-0.64,-0.62,0.3,0.08,0.98,-0.1,-6.59,2.99,-5.25,-241.67,-435.76,-670.3,1.08,0.93,-0.04,1013.49,8.01,43,2
00:01:23:945,92.77,2.73,-132.61,92.77,-2.73,132.61,0.35,-0.63,-0.62,0.3,0.09,0.97,-0.11,-6.53,2.99,-5.25,-243.42,-426.97,-671.99,1.09,0.93,-0.06,1013.5,7.88,43,2
00:01:24:061,92.89,2.86,-132.6,92.89,-2.86,132.6,0.35,-0.63,-0.62,0.3,0.09,1,-0.11,-6.29,3.05,-5.25,-234.67,-435.76,-656.76,1.09,0.95,-0.06,1013.5,7.91,43,2
00:01:24:176,92.88,2.84,-132.7,92.88,-2.84,132.7,0.35,-0.64,-0.62,0.3,0.08,0.98,-0.11,-6.53,3.23,-5.07,-232.91,-434,-671.99,1.08,0.93,-0.06,1013.5,7.93,42,2
00:01:24:292,93.06,2.6,-132.7,93.06,-2.6,132.7,0.35,-0.64,-0.62,0.3,0.08,0.99,-0.11,-6.35,2.87,-5.19,-234.67,-435.76,-683.84,1.08,0.95,-0.05,1013.48,8.01,43,2
00:01:24:408,93.17,2.55,-132.68,93.17,-2.55,132.68,0.35,-0.64,-0.62,0.3,0.09,1,-0.09,-6.53,2.93,-5.19,-232.91,-430.49,-678.76,1.08,0.95,-0.03,1013.49,8.06,41,2
00:01:24:524,93.25,2.62,-132.65,93.25,-2.62,132.65,0.35,-0.64,-0.62,0.3,0.1,1,-0.08,-6.71,2.75,-5.07,-225.91,-423.46,-678.76,1.1,0.95,-0.02,1013.48,8.11,43,2
00:01:24:640,93.32,2.59,-132.57,93.32,-2.59,132.57,0.35,-0.64,-0.62,0.3,0.09,0.99,-0.09,-6.53,2.99,-5.19,-234.67,-421.7,-677.07,1.09,0.95,-0.03,1013.48,8.05,41,2
00:01:24:755,93.23,2.64,-132.47,93.23,-2.64,132.47,0.35,-0.64,-0.62,0.3,0.09,0.98,-0.11,-6.47,3.17,-5.19,-231.16,-425.22,-683.84,1.08,0.94,-0.05,1013.49,8.02,43,2
00:01:24:871,93.04,2.79,-132.39,93.04,-2.79,132.39,0.35,-0.64,-0.62,0.3,0.1,0.99,-0.08,-6.47,2.99,-5.25,-234.67,-425.22,-677.07,1.1,0.94,-0.03,1013.48,8.07,44,2
00:01:24:987,92.89,2.79,-132.35,92.89,-2.79,132.35,0.35,-0.63,-0.62,0.3,0.08,1,-0.11,-6.16,3.3,-5.19,-231.16,-428.73,-666.91,1.08,0.95,-0.06,1013.47,8.08,43,2
00:01:25:103,92.93,2.74,-132.38,92.93,-2.74,132.38,0.35,-0.63,-0.62,0.3,0.09,0.99,-0.1,-6.59,2.93,-5.19,-245.17,-432.25,-680.45,1.09,0.94,-0.04,1013.49,8.1,43,2
00:01:25:219,92.86,2.69,-132.38,92.86,-2.69,132.38,0.35,-0.63,-0.62,0.3,0.09,1,-0.09,-6.59,2.99,-5.25,-236.42,-423.46,-671.99,1.08,0.95,-0.04,1013.48,8.19,45,2
00:01:25:334,93.01,2.67,-132.35,93.01,-2.67,132.35,0.35,-0.64,-0.62,0.3,0.09,1.01,-0.1,-6.29,3.23,-5.13,-222.41,-419.95,-675.38,1.09,0.96,-0.05,1013.47,8.15,43,2
00:01:25:450,93.01,2.6,-132.32,93.01,-2.6,132.32,0.35,-0.64,-0.62,0.3,0.09,0.98,-0.07,-6.65,2.87,-5.19,-241.67,-428.73,-666.91,1.08,0.94,-0.01,1013.48,8.15,43,2
00:01:25:565,92.88,2.62,-132.32,92.88,-2.62,132.32,0.35,-0.63,-0.62,0.3,0.09,0.99,-0.08,-6.47,2.93,-5.31,-234.67,-418.19,-677.07,1.09,0.94,-0.03,1013.49,8.03,41,2
00:01:25:681,92.87,2.68,-132.27,92.87,-2.68,132.27,0.35,-0.63,-0.62,0.3,0.09,1,-0.09,-6.41,2.99,-5.07,-218.91,-426.97,-668.6,1.09,0.95,-0.04,1013.48,8.1,42,2
00:01:25:797,92.76,2.68,-132.3,92.76,-2.68,132.3,0.35,-0.63,-0.62,0.3,0.08,1,-0.11,-6.35,3.3,-5.07,-225.91,-437.52,-671.99,1.08,0.95,-0.06,1013.48,8.07,42,2
00:01:25:923,93.12,2.67,-132.35,93.12,-2.67,132.35,0.35,-0.64,-0.62,0.3,0.09,0.98,-0.08,-6.65,2.87,-5.19,-239.92,-426.97,-685.53,1.09,0.94,-0.03,1013.46,8.05,43,2
00:01:26:039,93.28,2.65,-132.33,93.28,-2.65,132.33,0.35,-0.64,-0.62,0.3,0.08,0.99,-0.08,-6.47,3.05,-5.25,-236.42,-437.52,-678.76,1.08,0.95,-0.02,1013.49,7.98,42,2
00:01:26:154,93.27,2.69,-132.38,93.27,-2.69,132.38,0.35,-0.64,-0.62,0.3,0.09,0.99,-0.1,-6.47,2.87,-5.25,-243.42,-441.03,-682.15,1.09,0.95,-0.04,1013.49,7.99,43,2
00:01:26:298,93.19,2.69,-132.4,93.19,-2.69,132.4,0.35,-0.64,-0.62,0.3,0.09,0.98,-0.1,-6.29,2.99,-5.13,-236.42,-423.46,-675.38,1.09,0.94,-0.04,1013.48,8.11,43,2
00:01:26:414,93.21,2.69,-132.38,93.21,-2.69,132.38,0.35,-0.64,-0.62,0.3,0.09,1,-0.1,-6.23,2.93,-5.25,-236.42,-426.97,-668.6,1.09,0.95,-0.04,1013.47,8.15,43,2
00:01:26:530,93.16,2.69,-132.45,93.16,-2.69,132.45,0.35,-0.64,-0.62,0.3,0.09,1,-0.1,-6.47,2.93,-5.13,-241.67,-439.27,-660.14,1.09,0.95,-0.04,1013.48,8.1,44,2
00:01:26:645,93.13,2.71,-132.58,93.13,-2.71,132.58,0.35,-0.64,-0.62,0.3,0.09,0.99,-0.09,-6.41,3.05,-5.13,-232.91,-437.52,-671.99,1.08,0.94,-0.04,1013.47,8.19,42,2
